<?xml version="1.0" encoding="UTF-8"?>

<Bundle xmlns="http://hl7.org/fhir">
  <id value="mii-exa-base-test-data-bundle-1"/>
  <meta>
    <security>
      <system value="http://terminology.hl7.org/CodeSystem/v3-ActReason"/>
      <code value="HTEST"/>
      <display value="test health data"/>
    </security>
  </meta>
  <language value="en"/>
  <type value="transaction"/>
  <timestamp value="2025-11-28T09:38:00+01:00"/>
  <entry>
    <fullUrl value="https://www.medizininformatik-initiative.de/Patient/mii-exa-person-patient-1"/>
    <resource>
      <Patient>
        <id value="mii-exa-person-patient-1"/>
        <meta>
          <profile value="https://www.medizininformatik-initiative.de/fhir/core/modul-person/StructureDefinition/Patient|2026.0.0-dev.1"/>
          <security>
            <system value="http://terminology.hl7.org/CodeSystem/v3-ActReason"/>
            <code value="HTEST"/>
            <display value="test health data"/>
          </security>
        </meta>
        <text>
          <status value="generated"/><div xmlns="http://www.w3.org/1999/xhtml"><div xml:lang="en" lang="en"><hr/><p><b>English</b></p><hr/><a name="Patient_mii-exa-person-patient-1"> </a><p class="res-header-id"><b>Generated Narrative: Patient mii-exa-person-patient-1</b></p><a name="mii-exa-person-patient-1"> </a><a name="hcmii-exa-person-patient-1"> </a><div style="display: inline-block; background-color: #d9e0e7; padding: 6px; margin: 4px; border: 1px solid #8da1b4; border-radius: 5px; line-height: 60%"><p style="margin-bottom: 0px"/><p style="margin-bottom: 0px">Profile: <a href="StructureDefinition-mii-pr-person-patient.html">MII PR Person Patientversion: null2026.0.0-dev.1)</a></p><p style="margin-bottom: 0px">Security Label: test health data (Details: ActReason code HTEST = 'test health data')</p></div><p style="border: 1px #661aff solid; background-color: #e6e6ff; padding: 10px;">Maja Julia Van-der-Dussen (official) Female, DoB: 1998-09-19 ( Medical record number (use: usual, ))</p><hr/><table class="grid"><tr><td style="background-color: #f3f5da" title="Known status of Patient">Deceased:</td><td colspan="3">false</td></tr><tr><td style="background-color: #f3f5da" title="Other Id (see the one above)">Other Id:</td><td colspan="3">Krankenversichertennummer/A999999999 (use: official, )</td></tr><tr><td style="background-color: #f3f5da" title="Alternate names (see the one above)">Alt. Name:</td><td colspan="3">Bachmann (Name changed for Marriage)</td></tr><tr><td style="background-color: #f3f5da" title="Ways to contact the Patient">Contact Detail</td><td colspan="3">Anna-Louisa-Karsch Str. 2 Berlin DE-BE 10178 DE </td></tr></table></div></div>
        </text>
        <identifier>
          <use value="usual"/>
          <type>
            <coding>
              <system value="http://terminology.hl7.org/CodeSystem/v2-0203"/>
              <code value="MR"/>
            </coding>
          </type>
          <system value="https://www.charite.de/fhir/sid/patienten"/>
          <value value="42285243"/>
          <assigner>
            <identifier>
              <system value="https://www.medizininformatik-initiative.de/fhir/core/CodeSystem/core-location-identifier"/>
              <value value="Charité"/>
            </identifier>
            <display value="Charité – Universitätsmedizin Berlin"/>
          </assigner>
        </identifier>
        <identifier>
          <use value="official"/>
          <type>
            <coding>
              <system value="http://fhir.de/CodeSystem/identifier-type-de-basis"/>
              <code value="KVZ10"/>
            </coding>
          </type>
          <system value="http://fhir.de/sid/gkv/kvid-10"/>
          <value value="A999999999"/>
          <assigner>
            <identifier>
              <use value="official"/>
              <system value="http://fhir.de/sid/arge-ik/iknr"/>
              <value value="260326822"/>
            </identifier>
          </assigner>
        </identifier>
        <name>
          <use value="official"/>
          <family value="Van-der-Dussen">
            <extension url="http://hl7.org/fhir/StructureDefinition/humanname-own-name">
              <valueString value="Van-der-Dussen"/>
            </extension>
          </family>
          <given value="Maja"/>
          <given value="Julia"/>
          <prefix value="Prof. Dr. med.">
            <extension url="http://hl7.org/fhir/StructureDefinition/iso21090-EN-qualifier">
              <valueCode value="AC"/>
            </extension>
          </prefix>
        </name>
        <name>
          <use value="maiden"/>
          <family value="Bachmann"/>
        </name>
        <gender value="female"/>
        <birthDate value="1998-09-19"/>
        <deceasedBoolean value="false"/>
        <address>
          <type value="both"/>
          <line value="Anna-Louisa-Karsch Str. 2"/>
          <city value="Berlin">
            <extension url="http://fhir.de/StructureDefinition/destatis/ags">
              <valueCoding>
                <system value="http://fhir.de/sid/destatis/ags"/>
                <code value="11000000"/>
              </valueCoding>
            </extension>
          </city>
          <state value="DE-BE"/>
          <postalCode value="10178"/>
          <country value="DE"/>
        </address>
      </Patient>
    </resource>
    <request>
      <method value="POST"/>
      <url value="Patient"/>
    </request>
  </entry>
  <entry>
    <fullUrl value="https://www.medizininformatik-initiative.de/Encounter/mii-exa-fall-kontakt-gesundheitseinrichtung-8"/>
    <resource>
      <Encounter>
        <id value="mii-exa-fall-kontakt-gesundheitseinrichtung-8"/>
        <meta>
          <profile value="https://www.medizininformatik-initiative.de/fhir/core/modul-fall/StructureDefinition/KontaktGesundheitseinrichtung|2026.0.0-dev.1"/>
          <security>
            <system value="http://terminology.hl7.org/CodeSystem/v3-ActReason"/>
            <code value="HTEST"/>
            <display value="test health data"/>
          </security>
        </meta>
        <text>
          <status value="generated"/><div xmlns="http://www.w3.org/1999/xhtml"><div xml:lang="en" lang="en"><hr/><p><b>English</b></p><hr/><a name="Encounter_mii-exa-fall-kontakt-gesundheitseinrichtung-8"> </a><p class="res-header-id"><b>Generated Narrative: Encounter mii-exa-fall-kontakt-gesundheitseinrichtung-8</b></p><a name="mii-exa-fall-kontakt-gesundheitseinrichtung-8"> </a><a name="hcmii-exa-fall-kontakt-gesundheitseinrichtung-8"> </a><div style="display: inline-block; background-color: #d9e0e7; padding: 6px; margin: 4px; border: 1px solid #8da1b4; border-radius: 5px; line-height: 60%"><p style="margin-bottom: 0px"/><p style="margin-bottom: 0px">Profile: <a href="StructureDefinition-mii-pr-fall-kontakt-gesundheitseinrichtung.html">MII PR Fall Kontakt mit einer Gesundheitseinrichtungversion: null2026.0.0-dev.1)</a></p><p style="margin-bottom: 0px">Security Label: test health data (Details: ActReason code HTEST = 'test health data')</p></div><p><b>identifier</b>: Visit number/F_20190926_001</p><p><b>status</b>: Finished</p><p><b>class</b>: <a href="http://terminology.hl7.org/7.0.0/CodeSystem-v3-ActCode.html#v3-ActCode-AMB">ActCode: AMB</a> (ambulatory)</p><p><b>subject</b>: <a href="Patient-mii-exa-person-patient-1.html">Maja Julia Van-der-Dussen (official) Female, DoB: 1998-09-19 ( Medical record number (use: usual, ))</a></p><p><b>period</b>: 2019-09-26 10:00:00+0200 --&gt; 2019-09-26 12:00:00+0200</p><p><b>serviceProvider</b>: Identifier: <code>http://fhir.de/sid/dkgev/iknr</code>/260950472</p></div></div>
        </text>
        <identifier>
          <type>
            <coding>
              <system value="http://terminology.hl7.org/CodeSystem/v2-0203"/>
              <code value="VN"/>
            </coding>
          </type>
          <system value="https://www.charite.de/fhir/sid/aufnahmenummer"/>
          <value value="F_20190926_001"/>
        </identifier>
        <status value="finished"/>
        <class>
          <system value="http://terminology.hl7.org/CodeSystem/v3-ActCode"/>
          <code value="AMB"/>
        </class>
        <subject>
          <reference value="Patient/mii-exa-person-patient-1"/>
        </subject>
        <period>
          <start value="2019-09-26T10:00:00+02:00"/>
          <end value="2019-09-26T12:00:00+02:00"/>
        </period>
        <serviceProvider>
          <identifier>
            <system value="http://fhir.de/sid/dkgev/iknr"/>
            <value value="260950472"/>
          </identifier>
        </serviceProvider>
      </Encounter>
    </resource>
    <request>
      <method value="POST"/>
      <url value="Encounter"/>
    </request>
  </entry>
  <entry>
    <fullUrl value="https://www.medizininformatik-initiative.de/Encounter/mii-exa-fall-kontakt-gesundheitseinrichtung-1"/>
    <resource>
      <Encounter>
        <id value="mii-exa-fall-kontakt-gesundheitseinrichtung-1"/>
        <meta>
          <profile value="https://www.medizininformatik-initiative.de/fhir/core/modul-fall/StructureDefinition/KontaktGesundheitseinrichtung|2026.0.0-dev.1"/>
          <security>
            <system value="http://terminology.hl7.org/CodeSystem/v3-ActReason"/>
            <code value="HTEST"/>
            <display value="test health data"/>
          </security>
        </meta>
        <text>
          <status value="generated"/><div xmlns="http://www.w3.org/1999/xhtml"><div xml:lang="en" lang="en"><hr/><p><b>English</b></p><hr/><a name="Encounter_mii-exa-fall-kontakt-gesundheitseinrichtung-1"> </a><p class="res-header-id"><b>Generated Narrative: Encounter mii-exa-fall-kontakt-gesundheitseinrichtung-1</b></p><a name="mii-exa-fall-kontakt-gesundheitseinrichtung-1"> </a><a name="hcmii-exa-fall-kontakt-gesundheitseinrichtung-1"> </a><div style="display: inline-block; background-color: #d9e0e7; padding: 6px; margin: 4px; border: 1px solid #8da1b4; border-radius: 5px; line-height: 60%"><p style="margin-bottom: 0px"/><p style="margin-bottom: 0px">Profile: <a href="StructureDefinition-mii-pr-fall-kontakt-gesundheitseinrichtung.html">MII PR Fall Kontakt mit einer Gesundheitseinrichtungversion: null2026.0.0-dev.1)</a></p><p style="margin-bottom: 0px">Security Label: test health data (Details: ActReason code HTEST = 'test health data')</p></div><p><b>identifier</b>: Visit number/E0</p><p><b>status</b>: Finished</p><p><b>class</b>: <a href="http://terminology.hl7.org/7.0.0/CodeSystem-v3-ActCode.html#v3-ActCode-IMP">ActCode: IMP</a> (inpatient encounter)</p><p><b>type</b>: <span title="Codes:{http://fhir.de/CodeSystem/Kontaktebene einrichtungskontakt}">Einrichtungskontakt</span></p><p><b>subject</b>: <a href="Patient-mii-exa-person-patient-1.html">Maja Julia Van-der-Dussen (official) Female, DoB: 1998-09-19 ( Medical record number (use: usual, ))</a></p><p><b>period</b>: 2020-01-08 07:00:00+0100 --&gt; 2020-01-17 18:00:00+0100</p><p><b>account</b>: Account A1 - DRG G23B Appendektomie ohne schwere CC (Identifier: <code>https://www.charite.de/fhir/sid/fallnummer</code>/F-2020-000123)</p><h3>Hospitalizations</h3><table class="grid"><tr><td style="display: none">-</td><td><b>AdmitSource</b></td><td><b>DischargeDisposition</b></td></tr><tr><td style="display: none">*</td><td><span title="Codes:{http://fhir.de/CodeSystem/dgkev/Aufnahmeanlass N}">Notfall</span></td><td><span title="Codes:"></span></td></tr></table><p><b>serviceProvider</b>: Identifier: <code>http://fhir.de/sid/dkgev/iknr</code>/260950472</p></div></div>
        </text>
        <identifier>
          <type>
            <coding>
              <system value="http://terminology.hl7.org/CodeSystem/v2-0203"/>
              <code value="VN"/>
            </coding>
          </type>
          <system value="https://www.charite.de/fhir/sid/aufnahmenummer"/>
          <value value="E0"/>
        </identifier>
        <status value="finished"/>
        <class>
          <system value="http://terminology.hl7.org/CodeSystem/v3-ActCode"/>
          <code value="IMP"/>
        </class>
        <type>
          <coding>
            <system value="http://fhir.de/CodeSystem/Kontaktebene"/>
            <code value="einrichtungskontakt"/>
          </coding>
        </type>
        <subject>
          <reference value="Patient/mii-exa-person-patient-1"/>
        </subject>
        <period>
          <start value="2020-01-08T07:00:00+01:00"/>
          <end value="2020-01-17T18:00:00+01:00"/>
        </period>
        <account>
          <identifier>
            <system value="https://www.charite.de/fhir/sid/fallnummer"/>
            <value value="F-2020-000123"/>
          </identifier>
          <display value="Account A1 - DRG G23B Appendektomie ohne schwere CC"/>
        </account>
        <hospitalization>
          <admitSource>
            <coding>
              <system value="http://fhir.de/CodeSystem/dgkev/Aufnahmeanlass"/>
              <code value="N"/>
              <display value="Notfall"/>
            </coding>
          </admitSource>
          <dischargeDisposition>
            <extension url="http://fhir.de/StructureDefinition/Entlassungsgrund">
              <extension url="ErsteUndZweiteStelle">
                <valueCoding>
                  <system value="http://fhir.de/CodeSystem/dkgev/EntlassungsgrundErsteUndZweiteStelle"/>
                  <code value="01"/>
                  <display value="Behandlung regulär beendet"/>
                </valueCoding>
              </extension>
              <extension url="DritteStelle">
                <valueCoding>
                  <system value="http://fhir.de/CodeSystem/dkgev/EntlassungsgrundDritteStelle"/>
                  <code value="1"/>
                  <display value="arbeitsfähig entlassen"/>
                </valueCoding>
              </extension>
            </extension>
          </dischargeDisposition>
        </hospitalization>
        <serviceProvider>
          <identifier>
            <system value="http://fhir.de/sid/dkgev/iknr"/>
            <value value="260950472"/>
          </identifier>
        </serviceProvider>
      </Encounter>
    </resource>
    <request>
      <method value="POST"/>
      <url value="Encounter"/>
    </request>
  </entry>
  <entry>
    <fullUrl value="https://www.medizininformatik-initiative.de/Encounter/mii-exa-fall-kontakt-gesundheitseinrichtung-9"/>
    <resource>
      <Encounter>
        <id value="mii-exa-fall-kontakt-gesundheitseinrichtung-9"/>
        <meta>
          <profile value="https://www.medizininformatik-initiative.de/fhir/core/modul-fall/StructureDefinition/KontaktGesundheitseinrichtung|2026.0.0-dev.1"/>
          <security>
            <system value="http://terminology.hl7.org/CodeSystem/v3-ActReason"/>
            <code value="HTEST"/>
            <display value="test health data"/>
          </security>
        </meta>
        <text>
          <status value="extensions"/><div xmlns="http://www.w3.org/1999/xhtml"><div xml:lang="en" lang="en"><hr/><p><b>English</b></p><hr/><a name="Encounter_mii-exa-fall-kontakt-gesundheitseinrichtung-9"> </a><p class="res-header-id"><b>Generated Narrative: Encounter mii-exa-fall-kontakt-gesundheitseinrichtung-9</b></p><a name="mii-exa-fall-kontakt-gesundheitseinrichtung-9"> </a><a name="hcmii-exa-fall-kontakt-gesundheitseinrichtung-9"> </a><div style="display: inline-block; background-color: #d9e0e7; padding: 6px; margin: 4px; border: 1px solid #8da1b4; border-radius: 5px; line-height: 60%"><p style="margin-bottom: 0px"/><p style="margin-bottom: 0px">Profile: <a href="StructureDefinition-mii-pr-fall-kontakt-gesundheitseinrichtung.html">MII PR Fall Kontakt mit einer Gesundheitseinrichtungversion: null2026.0.0-dev.1)</a></p><p style="margin-bottom: 0px">Security Label: test health data (Details: ActReason code HTEST = 'test health data')</p></div><blockquote><p><b>ExtensionAufnahmegrund</b></p><ul><li>VierteStelle: <a href="https://simplifier.net/resolve?scope=de.basisprofil.r4@1.5.4&amp;canonical=http://fhir.de/CodeSystem/dkgev/AufnahmegrundVierteStelle#AufnahmegrundVierteStelle-7">AufnahmegrundVierteStelle: 7</a> (Notfall)</li></ul></blockquote><p><b>identifier</b>: Visit number/A1E</p><p><b>status</b>: Finished</p><p><b>class</b>: <a href="http://terminology.hl7.org/7.0.0/CodeSystem-v3-ActCode.html#v3-ActCode-AMB">ActCode: AMB</a> (ambulatory)</p><p><b>type</b>: <span title="Codes:{http://fhir.de/CodeSystem/Kontaktebene abteilungskontakt}">Abteilungskontakt</span></p><p><b>priority</b>: <span title="Codes:{http://terminology.hl7.org/CodeSystem/v3-ActPriority EM}">emergency</span></p><p><b>subject</b>: <a href="Patient-mii-exa-person-patient-1.html">Maja Julia Van-der-Dussen (official) Female, DoB: 1998-09-19 ( Medical record number (use: usual, ))</a></p><p><b>period</b>: 2020-01-08 07:00:00+0100 --&gt; 2020-01-08 09:00:00+0100</p><p><b>account</b>: Account A1 - DRG G23B Appendektomie ohne schwere CC (Identifier: <code>https://www.charite.de/fhir/sid/fallnummer</code>/F-2020-000123)</p><p><b>serviceProvider</b>: Identifier: <code>http://fhir.de/sid/dkgev/iknr</code>/260950472</p><p><b>partOf</b>: <a href="Encounter-mii-exa-fall-kontakt-gesundheitseinrichtung-1.html">Encounter: identifier = Visit number; status = finished; class = inpatient encounter (ActCode#IMP); type = Einrichtungskontakt; period = 2020-01-08 07:00:00+0100 --&gt; 2020-01-17 18:00:00+0100</a></p></div></div>
        </text>
        <extension url="http://fhir.de/StructureDefinition/Aufnahmegrund">
          <extension url="VierteStelle">
            <valueCoding>
              <system value="http://fhir.de/CodeSystem/dkgev/AufnahmegrundVierteStelle"/>
              <code value="7"/>
              <display value="Notfall"/>
            </valueCoding>
          </extension>
        </extension>
        <identifier>
          <type>
            <coding>
              <system value="http://terminology.hl7.org/CodeSystem/v2-0203"/>
              <code value="VN"/>
            </coding>
          </type>
          <system value="https://www.charite.de/fhir/sid/aufnahmenummer"/>
          <value value="A1E"/>
        </identifier>
        <status value="finished"/>
        <class>
          <system value="http://terminology.hl7.org/CodeSystem/v3-ActCode"/>
          <code value="AMB"/>
        </class>
        <type>
          <coding>
            <system value="http://fhir.de/CodeSystem/Kontaktebene"/>
            <code value="abteilungskontakt"/>
          </coding>
        </type>
        <priority>
          <coding>
            <system value="http://terminology.hl7.org/CodeSystem/v3-ActPriority"/>
            <code value="EM"/>
          </coding>
        </priority>
        <subject>
          <reference value="Patient/mii-exa-person-patient-1"/>
        </subject>
        <period>
          <start value="2020-01-08T07:00:00+01:00"/>
          <end value="2020-01-08T09:00:00+01:00"/>
        </period>
        <account>
          <identifier>
            <system value="https://www.charite.de/fhir/sid/fallnummer"/>
            <value value="F-2020-000123"/>
          </identifier>
          <display value="Account A1 - DRG G23B Appendektomie ohne schwere CC"/>
        </account>
        <serviceProvider>
          <identifier>
            <system value="http://fhir.de/sid/dkgev/iknr"/>
            <value value="260950472"/>
          </identifier>
        </serviceProvider>
        <partOf>
          <reference value="Encounter/mii-exa-fall-kontakt-gesundheitseinrichtung-1"/>
        </partOf>
      </Encounter>
    </resource>
    <request>
      <method value="POST"/>
      <url value="Encounter"/>
    </request>
  </entry>
  <entry>
    <fullUrl value="https://www.medizininformatik-initiative.de/Encounter/mii-exa-fall-kontakt-gesundheitseinrichtung-11"/>
    <resource>
      <Encounter>
        <id value="mii-exa-fall-kontakt-gesundheitseinrichtung-11"/>
        <meta>
          <profile value="https://www.medizininformatik-initiative.de/fhir/core/modul-fall/StructureDefinition/KontaktGesundheitseinrichtung|2026.0.0-dev.1"/>
          <security>
            <system value="http://terminology.hl7.org/CodeSystem/v3-ActReason"/>
            <code value="HTEST"/>
            <display value="test health data"/>
          </security>
        </meta>
        <text>
          <status value="generated"/><div xmlns="http://www.w3.org/1999/xhtml"><div xml:lang="en" lang="en"><hr/><p><b>English</b></p><hr/><a name="Encounter_mii-exa-fall-kontakt-gesundheitseinrichtung-11"> </a><p class="res-header-id"><b>Generated Narrative: Encounter mii-exa-fall-kontakt-gesundheitseinrichtung-11</b></p><a name="mii-exa-fall-kontakt-gesundheitseinrichtung-11"> </a><a name="hcmii-exa-fall-kontakt-gesundheitseinrichtung-11"> </a><div style="display: inline-block; background-color: #d9e0e7; padding: 6px; margin: 4px; border: 1px solid #8da1b4; border-radius: 5px; line-height: 60%"><p style="margin-bottom: 0px"/><p style="margin-bottom: 0px">Profile: <a href="StructureDefinition-mii-pr-fall-kontakt-gesundheitseinrichtung.html">MII PR Fall Kontakt mit einer Gesundheitseinrichtungversion: null2026.0.0-dev.1)</a></p><p style="margin-bottom: 0px">Security Label: test health data (Details: ActReason code HTEST = 'test health data')</p></div><p><b>identifier</b>: Visit number/VS1</p><p><b>status</b>: Finished</p><p><b>class</b>: <a href="http://terminology.hl7.org/7.0.0/CodeSystem-v3-ActCode.html#v3-ActCode-AMB">ActCode: AMB</a> (ambulatory)</p><p><b>type</b>: <span title="Codes:{http://fhir.de/CodeSystem/Kontaktebene versorgungsstellenkontakt}">Versorgungsstellenkontakt</span></p><p><b>subject</b>: <a href="Patient-mii-exa-person-patient-1.html">Maja Julia Van-der-Dussen (official) Female, DoB: 1998-09-19 ( Medical record number (use: usual, ))</a></p><p><b>period</b>: 2020-01-08 07:00:00+0100 --&gt; 2020-01-08 09:00:00+0100</p><p><b>account</b>: Account A1 - DRG G23B Appendektomie ohne schwere CC (Identifier: <code>https://www.charite.de/fhir/sid/fallnummer</code>/F-2020-000123)</p><h3>Locations</h3><table class="grid"><tr><td style="display: none">-</td><td><b>Location</b></td><td><b>Status</b></td><td><b>PhysicalType</b></td></tr><tr><td style="display: none">*</td><td>Emergency Department, Treatment Room 3</td><td>Completed</td><td><span title="Codes:{http://terminology.hl7.org/CodeSystem/location-physical-type ro}">Room</span></td></tr></table><p><b>serviceProvider</b>: Identifier: <code>http://fhir.de/sid/dkgev/iknr</code>/260950472</p><p><b>partOf</b>: <a href="Encounter-mii-exa-fall-kontakt-gesundheitseinrichtung-9.html">Encounter: extension = ; identifier = Visit number; status = finished; class = ambulatory (ActCode#AMB); type = Abteilungskontakt; priority = emergency; period = 2020-01-08 07:00:00+0100 --&gt; 2020-01-08 09:00:00+0100</a></p></div></div>
        </text>
        <identifier>
          <type>
            <coding>
              <system value="http://terminology.hl7.org/CodeSystem/v2-0203"/>
              <code value="VN"/>
            </coding>
          </type>
          <system value="https://www.charite.de/fhir/sid/aufnahmenummer"/>
          <value value="VS1"/>
        </identifier>
        <status value="finished"/>
        <class>
          <system value="http://terminology.hl7.org/CodeSystem/v3-ActCode"/>
          <code value="AMB"/>
        </class>
        <type>
          <coding>
            <system value="http://fhir.de/CodeSystem/Kontaktebene"/>
            <code value="versorgungsstellenkontakt"/>
          </coding>
        </type>
        <subject>
          <reference value="Patient/mii-exa-person-patient-1"/>
        </subject>
        <period>
          <start value="2020-01-08T07:00:00+01:00"/>
          <end value="2020-01-08T09:00:00+01:00"/>
        </period>
        <account>
          <identifier>
            <system value="https://www.charite.de/fhir/sid/fallnummer"/>
            <value value="F-2020-000123"/>
          </identifier>
          <display value="Account A1 - DRG G23B Appendektomie ohne schwere CC"/>
        </account>
        <location>
          <location>
            <display value="Emergency Department, Treatment Room 3"/>
          </location>
          <status value="completed"/>
          <physicalType>
            <coding>
              <system value="http://terminology.hl7.org/CodeSystem/location-physical-type"/>
              <code value="ro"/>
            </coding>
          </physicalType>
        </location>
        <serviceProvider>
          <identifier>
            <system value="http://fhir.de/sid/dkgev/iknr"/>
            <value value="260950472"/>
          </identifier>
        </serviceProvider>
        <partOf>
          <reference value="Encounter/mii-exa-fall-kontakt-gesundheitseinrichtung-9"/>
        </partOf>
      </Encounter>
    </resource>
    <request>
      <method value="POST"/>
      <url value="Encounter"/>
    </request>
  </entry>
  <entry>
    <fullUrl value="https://www.medizininformatik-initiative.de/Encounter/mii-exa-fall-kontakt-gesundheitseinrichtung-2"/>
    <resource>
      <Encounter>
        <id value="mii-exa-fall-kontakt-gesundheitseinrichtung-2"/>
        <meta>
          <profile value="https://www.medizininformatik-initiative.de/fhir/core/modul-fall/StructureDefinition/KontaktGesundheitseinrichtung|2026.0.0-dev.1"/>
          <security>
            <system value="http://terminology.hl7.org/CodeSystem/v3-ActReason"/>
            <code value="HTEST"/>
            <display value="test health data"/>
          </security>
        </meta>
        <text>
          <status value="generated"/><div xmlns="http://www.w3.org/1999/xhtml"><div xml:lang="en" lang="en"><hr/><p><b>English</b></p><hr/><a name="Encounter_mii-exa-fall-kontakt-gesundheitseinrichtung-2"> </a><p class="res-header-id"><b>Generated Narrative: Encounter mii-exa-fall-kontakt-gesundheitseinrichtung-2</b></p><a name="mii-exa-fall-kontakt-gesundheitseinrichtung-2"> </a><a name="hcmii-exa-fall-kontakt-gesundheitseinrichtung-2"> </a><div style="display: inline-block; background-color: #d9e0e7; padding: 6px; margin: 4px; border: 1px solid #8da1b4; border-radius: 5px; line-height: 60%"><p style="margin-bottom: 0px"/><p style="margin-bottom: 0px">Profile: <a href="StructureDefinition-mii-pr-fall-kontakt-gesundheitseinrichtung.html">MII PR Fall Kontakt mit einer Gesundheitseinrichtungversion: null2026.0.0-dev.1)</a></p><p style="margin-bottom: 0px">Security Label: test health data (Details: ActReason code HTEST = 'test health data')</p></div><p><b>identifier</b>: Visit number/A2E</p><p><b>status</b>: Finished</p><p><b>class</b>: <a href="http://terminology.hl7.org/7.0.0/CodeSystem-v3-ActCode.html#v3-ActCode-IMP">ActCode: IMP</a> (inpatient encounter)</p><p><b>type</b>: <span title="Codes:{http://fhir.de/CodeSystem/Kontaktebene abteilungskontakt}">Abteilungskontakt</span></p><p><b>serviceType</b>: <span title="Codes:{http://fhir.de/CodeSystem/dkgev/Fachabteilungsschluessel 1500}">Allgemeine Chirurgie</span></p><p><b>subject</b>: <a href="Patient-mii-exa-person-patient-1.html">Maja Julia Van-der-Dussen (official) Female, DoB: 1998-09-19 ( Medical record number (use: usual, ))</a></p><p><b>period</b>: 2020-01-08 09:00:00+0100 --&gt; 2020-01-11 23:59:00+0100</p><blockquote><p><b>diagnosis</b></p><p><b>condition</b>: <a href="Condition-mii-exa-diagnose-appendicitis.html">Condition Akute Appendizitis, nicht näher bezeichnet</a></p><p><b>use</b>: <span title="Codes:{http://terminology.hl7.org/CodeSystem/diagnosis-role AD}">Admission diagnosis</span></p></blockquote><blockquote><p><b>diagnosis</b></p><p><b>condition</b>: <a href="Condition-mii-exa-diagnose-appendicitis.html">Condition Akute Appendizitis, nicht näher bezeichnet</a></p><p><b>use</b>: <span title="Codes:{http://fhir.de/CodeSystem/KontaktDiagnoseProzedur treatment-diagnosis}">Behandlungsrelevante Diagnosen</span></p></blockquote><blockquote><p><b>diagnosis</b></p><p><b>condition</b>: <a href="Condition-mii-exa-diagnose-condition-elbow-contusion.html">Condition Prellung des Ellenbogens</a></p><p><b>use</b>: <span title="Codes:{http://fhir.de/CodeSystem/KontaktDiagnoseProzedur treatment-diagnosis}">Behandlungsrelevante Diagnosen</span></p></blockquote><p><b>account</b>: Account A1 - DRG G23B Appendektomie ohne schwere CC (Identifier: <code>https://www.charite.de/fhir/sid/fallnummer</code>/F-2020-000123)</p><p><b>serviceProvider</b>: Identifier: <code>http://fhir.de/sid/dkgev/iknr</code>/260950472</p><p><b>partOf</b>: <a href="Encounter-mii-exa-fall-kontakt-gesundheitseinrichtung-1.html">Encounter: identifier = Visit number; status = finished; class = inpatient encounter (ActCode#IMP); type = Einrichtungskontakt; period = 2020-01-08 07:00:00+0100 --&gt; 2020-01-17 18:00:00+0100</a></p></div></div>
        </text>
        <identifier>
          <type>
            <coding>
              <system value="http://terminology.hl7.org/CodeSystem/v2-0203"/>
              <code value="VN"/>
            </coding>
          </type>
          <system value="https://www.charite.de/fhir/sid/aufnahmenummer"/>
          <value value="A2E"/>
        </identifier>
        <status value="finished"/>
        <class>
          <system value="http://terminology.hl7.org/CodeSystem/v3-ActCode"/>
          <code value="IMP"/>
        </class>
        <type>
          <coding>
            <system value="http://fhir.de/CodeSystem/Kontaktebene"/>
            <code value="abteilungskontakt"/>
          </coding>
        </type>
        <serviceType>
          <coding>
            <system value="http://fhir.de/CodeSystem/dkgev/Fachabteilungsschluessel"/>
            <code value="1500"/>
            <display value="Allgemeine Chirurgie"/>
          </coding>
        </serviceType>
        <subject>
          <reference value="Patient/mii-exa-person-patient-1"/>
        </subject>
        <period>
          <start value="2020-01-08T09:00:00+01:00"/>
          <end value="2020-01-11T23:59:00+01:00"/>
        </period>
        <diagnosis>
          <condition>
            <reference value="Condition/mii-exa-diagnose-appendicitis"/>
          </condition>
          <use>
            <coding>
              <system value="http://terminology.hl7.org/CodeSystem/diagnosis-role"/>
              <code value="AD"/>
              <display value="Admission diagnosis"/>
            </coding>
          </use>
        </diagnosis>
        <diagnosis>
          <condition>
            <reference value="Condition/mii-exa-diagnose-appendicitis"/>
          </condition>
          <use>
            <coding>
              <system value="http://fhir.de/CodeSystem/KontaktDiagnoseProzedur"/>
              <code value="treatment-diagnosis"/>
            </coding>
          </use>
        </diagnosis>
        <diagnosis>
          <condition>
            <reference value="Condition/mii-exa-diagnose-condition-elbow-contusion"/>
          </condition>
          <use>
            <coding>
              <system value="http://fhir.de/CodeSystem/KontaktDiagnoseProzedur"/>
              <code value="treatment-diagnosis"/>
            </coding>
          </use>
        </diagnosis>
        <account>
          <identifier>
            <system value="https://www.charite.de/fhir/sid/fallnummer"/>
            <value value="F-2020-000123"/>
          </identifier>
          <display value="Account A1 - DRG G23B Appendektomie ohne schwere CC"/>
        </account>
        <serviceProvider>
          <identifier>
            <system value="http://fhir.de/sid/dkgev/iknr"/>
            <value value="260950472"/>
          </identifier>
        </serviceProvider>
        <partOf>
          <reference value="Encounter/mii-exa-fall-kontakt-gesundheitseinrichtung-1"/>
        </partOf>
      </Encounter>
    </resource>
    <request>
      <method value="POST"/>
      <url value="Encounter"/>
    </request>
  </entry>
  <entry>
    <fullUrl value="https://www.medizininformatik-initiative.de/Encounter/mii-exa-fall-kontakt-gesundheitseinrichtung-4"/>
    <resource>
      <Encounter>
        <id value="mii-exa-fall-kontakt-gesundheitseinrichtung-4"/>
        <meta>
          <profile value="https://www.medizininformatik-initiative.de/fhir/core/modul-fall/StructureDefinition/KontaktGesundheitseinrichtung|2026.0.0-dev.1"/>
          <security>
            <system value="http://terminology.hl7.org/CodeSystem/v3-ActReason"/>
            <code value="HTEST"/>
            <display value="test health data"/>
          </security>
        </meta>
        <text>
          <status value="generated"/><div xmlns="http://www.w3.org/1999/xhtml"><div xml:lang="en" lang="en"><hr/><p><b>English</b></p><hr/><a name="Encounter_mii-exa-fall-kontakt-gesundheitseinrichtung-4"> </a><p class="res-header-id"><b>Generated Narrative: Encounter mii-exa-fall-kontakt-gesundheitseinrichtung-4</b></p><a name="mii-exa-fall-kontakt-gesundheitseinrichtung-4"> </a><a name="hcmii-exa-fall-kontakt-gesundheitseinrichtung-4"> </a><div style="display: inline-block; background-color: #d9e0e7; padding: 6px; margin: 4px; border: 1px solid #8da1b4; border-radius: 5px; line-height: 60%"><p style="margin-bottom: 0px"/><p style="margin-bottom: 0px">Profile: <a href="StructureDefinition-mii-pr-fall-kontakt-gesundheitseinrichtung.html">MII PR Fall Kontakt mit einer Gesundheitseinrichtungversion: null2026.0.0-dev.1)</a></p><p style="margin-bottom: 0px">Security Label: test health data (Details: ActReason code HTEST = 'test health data')</p></div><p><b>identifier</b>: Visit number/VS2</p><p><b>status</b>: Finished</p><p><b>class</b>: <a href="http://terminology.hl7.org/7.0.0/CodeSystem-v3-ActCode.html#v3-ActCode-IMP">ActCode: IMP</a> (inpatient encounter)</p><p><b>type</b>: <span title="Codes:{http://fhir.de/CodeSystem/Kontaktebene versorgungsstellenkontakt}">Versorgungsstellenkontakt</span></p><p><b>subject</b>: <a href="Patient-mii-exa-person-patient-1.html">Maja Julia Van-der-Dussen (official) Female, DoB: 1998-09-19 ( Medical record number (use: usual, ))</a></p><p><b>period</b>: 2020-01-08 10:00:00+0100 --&gt; 2020-01-08 10:30:00+0100</p><p><b>account</b>: Account A1 - DRG G23B Appendektomie ohne schwere CC (Identifier: <code>https://www.charite.de/fhir/sid/fallnummer</code>/F-2020-000123)</p><h3>Locations</h3><table class="grid"><tr><td style="display: none">-</td><td><b>Location</b></td><td><b>Status</b></td><td><b>PhysicalType</b></td></tr><tr><td style="display: none">*</td><td>Radiology Department, CT Scanner</td><td>Completed</td><td><span title="Codes:{http://terminology.hl7.org/CodeSystem/location-physical-type ro}">Room</span></td></tr></table><p><b>serviceProvider</b>: Identifier: <code>http://fhir.de/sid/dkgev/iknr</code>/260950472</p><p><b>partOf</b>: <a href="Encounter-mii-exa-fall-kontakt-gesundheitseinrichtung-2.html">Encounter: identifier = Visit number; status = finished; class = inpatient encounter (ActCode#IMP); type = Abteilungskontakt; serviceType = Allgemeine Chirurgie; period = 2020-01-08 09:00:00+0100 --&gt; 2020-01-11 23:59:00+0100</a></p></div></div>
        </text>
        <identifier>
          <type>
            <coding>
              <system value="http://terminology.hl7.org/CodeSystem/v2-0203"/>
              <code value="VN"/>
            </coding>
          </type>
          <system value="https://www.charite.de/fhir/sid/aufnahmenummer"/>
          <value value="VS2"/>
        </identifier>
        <status value="finished"/>
        <class>
          <system value="http://terminology.hl7.org/CodeSystem/v3-ActCode"/>
          <code value="IMP"/>
        </class>
        <type>
          <coding>
            <system value="http://fhir.de/CodeSystem/Kontaktebene"/>
            <code value="versorgungsstellenkontakt"/>
          </coding>
        </type>
        <subject>
          <reference value="Patient/mii-exa-person-patient-1"/>
        </subject>
        <period>
          <start value="2020-01-08T10:00:00+01:00"/>
          <end value="2020-01-08T10:30:00+01:00"/>
        </period>
        <account>
          <identifier>
            <system value="https://www.charite.de/fhir/sid/fallnummer"/>
            <value value="F-2020-000123"/>
          </identifier>
          <display value="Account A1 - DRG G23B Appendektomie ohne schwere CC"/>
        </account>
        <location>
          <location>
            <display value="Radiology Department, CT Scanner"/>
          </location>
          <status value="completed"/>
          <physicalType>
            <coding>
              <system value="http://terminology.hl7.org/CodeSystem/location-physical-type"/>
              <code value="ro"/>
              <display value="Room"/>
            </coding>
          </physicalType>
        </location>
        <serviceProvider>
          <identifier>
            <system value="http://fhir.de/sid/dkgev/iknr"/>
            <value value="260950472"/>
          </identifier>
        </serviceProvider>
        <partOf>
          <reference value="Encounter/mii-exa-fall-kontakt-gesundheitseinrichtung-2"/>
        </partOf>
      </Encounter>
    </resource>
    <request>
      <method value="POST"/>
      <url value="Encounter"/>
    </request>
  </entry>
  <entry>
    <fullUrl value="https://www.medizininformatik-initiative.de/Encounter/mii-exa-fall-kontakt-gesundheitseinrichtung-5"/>
    <resource>
      <Encounter>
        <id value="mii-exa-fall-kontakt-gesundheitseinrichtung-5"/>
        <meta>
          <profile value="https://www.medizininformatik-initiative.de/fhir/core/modul-fall/StructureDefinition/KontaktGesundheitseinrichtung|2026.0.0-dev.1"/>
          <security>
            <system value="http://terminology.hl7.org/CodeSystem/v3-ActReason"/>
            <code value="HTEST"/>
            <display value="test health data"/>
          </security>
        </meta>
        <text>
          <status value="generated"/><div xmlns="http://www.w3.org/1999/xhtml"><div xml:lang="en" lang="en"><hr/><p><b>English</b></p><hr/><a name="Encounter_mii-exa-fall-kontakt-gesundheitseinrichtung-5"> </a><p class="res-header-id"><b>Generated Narrative: Encounter mii-exa-fall-kontakt-gesundheitseinrichtung-5</b></p><a name="mii-exa-fall-kontakt-gesundheitseinrichtung-5"> </a><a name="hcmii-exa-fall-kontakt-gesundheitseinrichtung-5"> </a><div style="display: inline-block; background-color: #d9e0e7; padding: 6px; margin: 4px; border: 1px solid #8da1b4; border-radius: 5px; line-height: 60%"><p style="margin-bottom: 0px"/><p style="margin-bottom: 0px">Profile: <a href="StructureDefinition-mii-pr-fall-kontakt-gesundheitseinrichtung.html">MII PR Fall Kontakt mit einer Gesundheitseinrichtungversion: null2026.0.0-dev.1)</a></p><p style="margin-bottom: 0px">Security Label: test health data (Details: ActReason code HTEST = 'test health data')</p></div><p><b>identifier</b>: Visit number/VS3</p><p><b>status</b>: Finished</p><p><b>class</b>: <a href="http://terminology.hl7.org/7.0.0/CodeSystem-v3-ActCode.html#v3-ActCode-IMP">ActCode: IMP</a> (inpatient encounter)</p><p><b>type</b>: <span title="Codes:{http://fhir.de/CodeSystem/Kontaktebene versorgungsstellenkontakt}">Versorgungsstellenkontakt</span>, <span title="Codes:{http://fhir.de/CodeSystem/kontaktart-de operation}">Operation</span></p><p><b>subject</b>: <a href="Patient-mii-exa-person-patient-1.html">Maja Julia Van-der-Dussen (official) Female, DoB: 1998-09-19 ( Medical record number (use: usual, ))</a></p><p><b>period</b>: 2020-01-08 20:30:00+0100 --&gt; 2020-01-08 22:15:00+0100</p><p><b>account</b>: Account A1 - DRG G23B Appendektomie ohne schwere CC (Identifier: <code>https://www.charite.de/fhir/sid/fallnummer</code>/F-2020-000123)</p><h3>Locations</h3><table class="grid"><tr><td style="display: none">-</td><td><b>Location</b></td><td><b>Status</b></td><td><b>PhysicalType</b></td></tr><tr><td style="display: none">*</td><td>OR 4 (Operating Room 4)</td><td>Completed</td><td><span title="Codes:{http://terminology.hl7.org/CodeSystem/location-physical-type ro}">Room</span></td></tr></table><p><b>serviceProvider</b>: Identifier: <code>http://fhir.de/sid/dkgev/iknr</code>/260950472</p><p><b>partOf</b>: <a href="Encounter-mii-exa-fall-kontakt-gesundheitseinrichtung-2.html">Encounter: identifier = Visit number; status = finished; class = inpatient encounter (ActCode#IMP); type = Abteilungskontakt; serviceType = Allgemeine Chirurgie; period = 2020-01-08 09:00:00+0100 --&gt; 2020-01-11 23:59:00+0100</a></p></div></div>
        </text>
        <identifier>
          <type>
            <coding>
              <system value="http://terminology.hl7.org/CodeSystem/v2-0203"/>
              <code value="VN"/>
            </coding>
          </type>
          <system value="https://www.charite.de/fhir/sid/aufnahmenummer"/>
          <value value="VS3"/>
        </identifier>
        <status value="finished"/>
        <class>
          <system value="http://terminology.hl7.org/CodeSystem/v3-ActCode"/>
          <code value="IMP"/>
        </class>
        <type>
          <coding>
            <system value="http://fhir.de/CodeSystem/Kontaktebene"/>
            <code value="versorgungsstellenkontakt"/>
          </coding>
        </type>
        <type>
          <coding>
            <system value="http://fhir.de/CodeSystem/kontaktart-de"/>
            <code value="operation"/>
          </coding>
        </type>
        <subject>
          <reference value="Patient/mii-exa-person-patient-1"/>
        </subject>
        <period>
          <start value="2020-01-08T20:30:00+01:00"/>
          <end value="2020-01-08T22:15:00+01:00"/>
        </period>
        <account>
          <identifier>
            <system value="https://www.charite.de/fhir/sid/fallnummer"/>
            <value value="F-2020-000123"/>
          </identifier>
          <display value="Account A1 - DRG G23B Appendektomie ohne schwere CC"/>
        </account>
        <location>
          <location>
            <display value="OR 4 (Operating Room 4)"/>
          </location>
          <status value="completed"/>
          <physicalType>
            <coding>
              <system value="http://terminology.hl7.org/CodeSystem/location-physical-type"/>
              <code value="ro"/>
              <display value="Room"/>
            </coding>
          </physicalType>
        </location>
        <serviceProvider>
          <identifier>
            <system value="http://fhir.de/sid/dkgev/iknr"/>
            <value value="260950472"/>
          </identifier>
        </serviceProvider>
        <partOf>
          <reference value="Encounter/mii-exa-fall-kontakt-gesundheitseinrichtung-2"/>
        </partOf>
      </Encounter>
    </resource>
    <request>
      <method value="POST"/>
      <url value="Encounter"/>
    </request>
  </entry>
  <entry>
    <fullUrl value="https://www.medizininformatik-initiative.de/Encounter/mii-exa-fall-kontakt-gesundheitseinrichtung-6"/>
    <resource>
      <Encounter>
        <id value="mii-exa-fall-kontakt-gesundheitseinrichtung-6"/>
        <meta>
          <profile value="https://www.medizininformatik-initiative.de/fhir/core/modul-fall/StructureDefinition/KontaktGesundheitseinrichtung|2026.0.0-dev.1"/>
          <security>
            <system value="http://terminology.hl7.org/CodeSystem/v3-ActReason"/>
            <code value="HTEST"/>
            <display value="test health data"/>
          </security>
        </meta>
        <text>
          <status value="generated"/><div xmlns="http://www.w3.org/1999/xhtml"><div xml:lang="en" lang="en"><hr/><p><b>English</b></p><hr/><a name="Encounter_mii-exa-fall-kontakt-gesundheitseinrichtung-6"> </a><p class="res-header-id"><b>Generated Narrative: Encounter mii-exa-fall-kontakt-gesundheitseinrichtung-6</b></p><a name="mii-exa-fall-kontakt-gesundheitseinrichtung-6"> </a><a name="hcmii-exa-fall-kontakt-gesundheitseinrichtung-6"> </a><div style="display: inline-block; background-color: #d9e0e7; padding: 6px; margin: 4px; border: 1px solid #8da1b4; border-radius: 5px; line-height: 60%"><p style="margin-bottom: 0px"/><p style="margin-bottom: 0px">Profile: <a href="StructureDefinition-mii-pr-fall-kontakt-gesundheitseinrichtung.html">MII PR Fall Kontakt mit einer Gesundheitseinrichtungversion: null2026.0.0-dev.1)</a></p><p style="margin-bottom: 0px">Security Label: test health data (Details: ActReason code HTEST = 'test health data')</p></div><p><b>identifier</b>: Visit number/VS4</p><p><b>status</b>: Finished</p><p><b>class</b>: <a href="http://terminology.hl7.org/7.0.0/CodeSystem-v3-ActCode.html#v3-ActCode-IMP">ActCode: IMP</a> (inpatient encounter)</p><p><b>type</b>: <span title="Codes:{http://fhir.de/CodeSystem/Kontaktebene versorgungsstellenkontakt}">Versorgungsstellenkontakt</span></p><p><b>subject</b>: <a href="Patient-mii-exa-person-patient-1.html">Maja Julia Van-der-Dussen (official) Female, DoB: 1998-09-19 ( Medical record number (use: usual, ))</a></p><p><b>period</b>: 2020-01-08 22:15:00+0100 --&gt; 2020-01-09 00:00:00+0100</p><p><b>account</b>: Account A1 - DRG G23B Appendektomie ohne schwere CC (Identifier: <code>https://www.charite.de/fhir/sid/fallnummer</code>/F-2020-000123)</p><h3>Locations</h3><table class="grid"><tr><td style="display: none">-</td><td><b>Location</b></td><td><b>Status</b></td><td><b>PhysicalType</b></td></tr><tr><td style="display: none">*</td><td>PACU (Post-Anesthesia Care Unit)</td><td>Completed</td><td><span title="Codes:{http://terminology.hl7.org/CodeSystem/location-physical-type wa}">Ward</span></td></tr></table><p><b>serviceProvider</b>: Identifier: <code>http://fhir.de/sid/dkgev/iknr</code>/260950472</p><p><b>partOf</b>: <a href="Encounter-mii-exa-fall-kontakt-gesundheitseinrichtung-2.html">Encounter: identifier = Visit number; status = finished; class = inpatient encounter (ActCode#IMP); type = Abteilungskontakt; serviceType = Allgemeine Chirurgie; period = 2020-01-08 09:00:00+0100 --&gt; 2020-01-11 23:59:00+0100</a></p></div></div>
        </text>
        <identifier>
          <type>
            <coding>
              <system value="http://terminology.hl7.org/CodeSystem/v2-0203"/>
              <code value="VN"/>
            </coding>
          </type>
          <system value="https://www.charite.de/fhir/sid/aufnahmenummer"/>
          <value value="VS4"/>
        </identifier>
        <status value="finished"/>
        <class>
          <system value="http://terminology.hl7.org/CodeSystem/v3-ActCode"/>
          <code value="IMP"/>
        </class>
        <type>
          <coding>
            <system value="http://fhir.de/CodeSystem/Kontaktebene"/>
            <code value="versorgungsstellenkontakt"/>
          </coding>
        </type>
        <subject>
          <reference value="Patient/mii-exa-person-patient-1"/>
        </subject>
        <period>
          <start value="2020-01-08T22:15:00+01:00"/>
          <end value="2020-01-09T00:00:00+01:00"/>
        </period>
        <account>
          <identifier>
            <system value="https://www.charite.de/fhir/sid/fallnummer"/>
            <value value="F-2020-000123"/>
          </identifier>
          <display value="Account A1 - DRG G23B Appendektomie ohne schwere CC"/>
        </account>
        <location>
          <location>
            <display value="PACU (Post-Anesthesia Care Unit)"/>
          </location>
          <status value="completed"/>
          <physicalType>
            <coding>
              <system value="http://terminology.hl7.org/CodeSystem/location-physical-type"/>
              <code value="wa"/>
              <display value="Ward"/>
            </coding>
          </physicalType>
        </location>
        <serviceProvider>
          <identifier>
            <system value="http://fhir.de/sid/dkgev/iknr"/>
            <value value="260950472"/>
          </identifier>
        </serviceProvider>
        <partOf>
          <reference value="Encounter/mii-exa-fall-kontakt-gesundheitseinrichtung-2"/>
        </partOf>
      </Encounter>
    </resource>
    <request>
      <method value="POST"/>
      <url value="Encounter"/>
    </request>
  </entry>
  <entry>
    <fullUrl value="https://www.medizininformatik-initiative.de/Encounter/mii-exa-fall-kontakt-gesundheitseinrichtung-10"/>
    <resource>
      <Encounter>
        <id value="mii-exa-fall-kontakt-gesundheitseinrichtung-10"/>
        <meta>
          <profile value="https://www.medizininformatik-initiative.de/fhir/core/modul-fall/StructureDefinition/KontaktGesundheitseinrichtung|2026.0.0-dev.1"/>
          <security>
            <system value="http://terminology.hl7.org/CodeSystem/v3-ActReason"/>
            <code value="HTEST"/>
            <display value="test health data"/>
          </security>
        </meta>
        <text>
          <status value="generated"/><div xmlns="http://www.w3.org/1999/xhtml"><div xml:lang="en" lang="en"><hr/><p><b>English</b></p><hr/><a name="Encounter_mii-exa-fall-kontakt-gesundheitseinrichtung-10"> </a><p class="res-header-id"><b>Generated Narrative: Encounter mii-exa-fall-kontakt-gesundheitseinrichtung-10</b></p><a name="mii-exa-fall-kontakt-gesundheitseinrichtung-10"> </a><a name="hcmii-exa-fall-kontakt-gesundheitseinrichtung-10"> </a><div style="display: inline-block; background-color: #d9e0e7; padding: 6px; margin: 4px; border: 1px solid #8da1b4; border-radius: 5px; line-height: 60%"><p style="margin-bottom: 0px"/><p style="margin-bottom: 0px">Profile: <a href="StructureDefinition-mii-pr-fall-kontakt-gesundheitseinrichtung.html">MII PR Fall Kontakt mit einer Gesundheitseinrichtungversion: null2026.0.0-dev.1)</a></p><p style="margin-bottom: 0px">Security Label: test health data (Details: ActReason code HTEST = 'test health data')</p></div><p><b>identifier</b>: Visit number/VS5</p><p><b>status</b>: Finished</p><p><b>class</b>: <a href="http://terminology.hl7.org/7.0.0/CodeSystem-v3-ActCode.html#v3-ActCode-IMP">ActCode: IMP</a> (inpatient encounter)</p><p><b>type</b>: <span title="Codes:{http://fhir.de/CodeSystem/Kontaktebene versorgungsstellenkontakt}">Versorgungsstellenkontakt</span></p><p><b>subject</b>: <a href="Patient-mii-exa-person-patient-1.html">Maja Julia Van-der-Dussen (official) Female, DoB: 1998-09-19 ( Medical record number (use: usual, ))</a></p><p><b>period</b>: 2020-01-09 00:00:00+0100 --&gt; 2020-01-11 23:59:00+0100</p><p><b>account</b>: Account A1 - DRG G23B Appendektomie ohne schwere CC (Identifier: <code>https://www.charite.de/fhir/sid/fallnummer</code>/F-2020-000123)</p><h3>Locations</h3><table class="grid"><tr><td style="display: none">-</td><td><b>Location</b></td><td><b>Status</b></td><td><b>PhysicalType</b></td></tr><tr><td style="display: none">*</td><td>Surgical Ward C3, Room 315, Bed 315-02</td><td>Completed</td><td><span title="Codes:{http://terminology.hl7.org/CodeSystem/location-physical-type wa}">Ward</span></td></tr></table><p><b>serviceProvider</b>: Identifier: <code>http://fhir.de/sid/dkgev/iknr</code>/260950472</p><p><b>partOf</b>: <a href="Encounter-mii-exa-fall-kontakt-gesundheitseinrichtung-2.html">Encounter: identifier = Visit number; status = finished; class = inpatient encounter (ActCode#IMP); type = Abteilungskontakt; serviceType = Allgemeine Chirurgie; period = 2020-01-08 09:00:00+0100 --&gt; 2020-01-11 23:59:00+0100</a></p></div></div>
        </text>
        <identifier>
          <type>
            <coding>
              <system value="http://terminology.hl7.org/CodeSystem/v2-0203"/>
              <code value="VN"/>
            </coding>
          </type>
          <system value="https://www.charite.de/fhir/sid/aufnahmenummer"/>
          <value value="VS5"/>
        </identifier>
        <status value="finished"/>
        <class>
          <system value="http://terminology.hl7.org/CodeSystem/v3-ActCode"/>
          <code value="IMP"/>
        </class>
        <type>
          <coding>
            <system value="http://fhir.de/CodeSystem/Kontaktebene"/>
            <code value="versorgungsstellenkontakt"/>
          </coding>
        </type>
        <subject>
          <reference value="Patient/mii-exa-person-patient-1"/>
        </subject>
        <period>
          <start value="2020-01-09T00:00:00+01:00"/>
          <end value="2020-01-11T23:59:00+01:00"/>
        </period>
        <account>
          <identifier>
            <system value="https://www.charite.de/fhir/sid/fallnummer"/>
            <value value="F-2020-000123"/>
          </identifier>
          <display value="Account A1 - DRG G23B Appendektomie ohne schwere CC"/>
        </account>
        <location>
          <location>
            <display value="Surgical Ward C3, Room 315, Bed 315-02"/>
          </location>
          <status value="completed"/>
          <physicalType>
            <coding>
              <system value="http://terminology.hl7.org/CodeSystem/location-physical-type"/>
              <code value="wa"/>
              <display value="Ward"/>
            </coding>
          </physicalType>
        </location>
        <serviceProvider>
          <identifier>
            <system value="http://fhir.de/sid/dkgev/iknr"/>
            <value value="260950472"/>
          </identifier>
        </serviceProvider>
        <partOf>
          <reference value="Encounter/mii-exa-fall-kontakt-gesundheitseinrichtung-2"/>
        </partOf>
      </Encounter>
    </resource>
    <request>
      <method value="POST"/>
      <url value="Encounter"/>
    </request>
  </entry>
  <entry>
    <fullUrl value="https://www.medizininformatik-initiative.de/Encounter/mii-exa-fall-kontakt-gesundheitseinrichtung-7"/>
    <resource>
      <Encounter>
        <id value="mii-exa-fall-kontakt-gesundheitseinrichtung-7"/>
        <meta>
          <profile value="https://www.medizininformatik-initiative.de/fhir/core/modul-fall/StructureDefinition/KontaktGesundheitseinrichtung|2026.0.0-dev.1"/>
          <security>
            <system value="http://terminology.hl7.org/CodeSystem/v3-ActReason"/>
            <code value="HTEST"/>
            <display value="test health data"/>
          </security>
        </meta>
        <text>
          <status value="generated"/><div xmlns="http://www.w3.org/1999/xhtml"><div xml:lang="en" lang="en"><hr/><p><b>English</b></p><hr/><a name="Encounter_mii-exa-fall-kontakt-gesundheitseinrichtung-7"> </a><p class="res-header-id"><b>Generated Narrative: Encounter mii-exa-fall-kontakt-gesundheitseinrichtung-7</b></p><a name="mii-exa-fall-kontakt-gesundheitseinrichtung-7"> </a><a name="hcmii-exa-fall-kontakt-gesundheitseinrichtung-7"> </a><div style="display: inline-block; background-color: #d9e0e7; padding: 6px; margin: 4px; border: 1px solid #8da1b4; border-radius: 5px; line-height: 60%"><p style="margin-bottom: 0px"/><p style="margin-bottom: 0px">Profile: <a href="StructureDefinition-mii-pr-fall-kontakt-gesundheitseinrichtung.html">MII PR Fall Kontakt mit einer Gesundheitseinrichtungversion: null2026.0.0-dev.1)</a></p><p style="margin-bottom: 0px">Security Label: test health data (Details: ActReason code HTEST = 'test health data')</p></div><p><b>identifier</b>: Visit number/F_20200108_001_INME</p><p><b>status</b>: Finished</p><p><b>class</b>: <a href="http://terminology.hl7.org/7.0.0/CodeSystem-v3-ActCode.html#v3-ActCode-IMP">ActCode: IMP</a> (inpatient encounter)</p><p><b>type</b>: <span title="Codes:{http://fhir.de/CodeSystem/Kontaktebene abteilungskontakt}">Abteilungskontakt</span></p><p><b>serviceType</b>: <span title="Codes:{http://fhir.de/CodeSystem/dkgev/Fachabteilungsschluessel 0100}">Innere Medizin</span></p><p><b>subject</b>: <a href="Patient-mii-exa-person-patient-1.html">Maja Julia Van-der-Dussen (official) Female, DoB: 1998-09-19 ( Medical record number (use: usual, ))</a></p><p><b>period</b>: 2020-01-12 00:00:00+0100 --&gt; 2020-01-17 18:00:00+0100</p><blockquote><p><b>diagnosis</b></p><p><b>condition</b>: <a href="Condition-mii-exa-diagnose-condition-multiple-codings.html">Condition Sonstige näher bezeichnete Krankheiten des Innenohres</a></p><p><b>use</b>: <span title="Codes:{http://terminology.hl7.org/CodeSystem/diagnosis-role CC}">Chief complaint</span></p></blockquote><blockquote><p><b>diagnosis</b></p><p><b>condition</b>: <a href="Condition-mii-exa-diagnose-condition-multiple-codings.html">Condition Sonstige näher bezeichnete Krankheiten des Innenohres</a></p><p><b>use</b>: <span title="Codes:{http://terminology.hl7.org/CodeSystem/diagnosis-role AD}">Admission diagnosis</span></p></blockquote><blockquote><p><b>diagnosis</b></p><p><b>condition</b>: <a href="Condition-mii-exa-diagnose-mehrfachcodierung-primaercode.html">Condition Gonokokkeninfektion des Muskel-Skelett-Systems</a></p><p><b>use</b>: <span title="Codes:{http://fhir.de/CodeSystem/KontaktDiagnoseProzedur treatment-diagnosis}">Behandlungsrelevante Diagnosen</span></p></blockquote><p><b>account</b>: Account A1 - DRG G23B Appendektomie ohne schwere CC (Identifier: <code>https://www.charite.de/fhir/sid/fallnummer</code>/F-2020-000123)</p><p><b>serviceProvider</b>: Identifier: <code>http://fhir.de/sid/dkgev/iknr</code>/260950472</p><p><b>partOf</b>: <a href="Encounter-mii-exa-fall-kontakt-gesundheitseinrichtung-1.html">Encounter: identifier = Visit number; status = finished; class = inpatient encounter (ActCode#IMP); type = Einrichtungskontakt; period = 2020-01-08 07:00:00+0100 --&gt; 2020-01-17 18:00:00+0100</a></p></div></div>
        </text>
        <identifier>
          <type>
            <coding>
              <system value="http://terminology.hl7.org/CodeSystem/v2-0203"/>
              <code value="VN"/>
            </coding>
          </type>
          <system value="https://www.charite.de/fhir/sid/aufnahmenummer"/>
          <value value="F_20200108_001_INME"/>
        </identifier>
        <status value="finished"/>
        <class>
          <system value="http://terminology.hl7.org/CodeSystem/v3-ActCode"/>
          <code value="IMP"/>
        </class>
        <type>
          <coding>
            <system value="http://fhir.de/CodeSystem/Kontaktebene"/>
            <code value="abteilungskontakt"/>
          </coding>
        </type>
        <serviceType>
          <coding>
            <system value="http://fhir.de/CodeSystem/dkgev/Fachabteilungsschluessel"/>
            <code value="0100"/>
            <display value="Innere Medizin"/>
          </coding>
        </serviceType>
        <subject>
          <reference value="Patient/mii-exa-person-patient-1"/>
        </subject>
        <period>
          <start value="2020-01-12T00:00:00+01:00"/>
          <end value="2020-01-17T18:00:00+01:00"/>
        </period>
        <diagnosis>
          <condition>
            <reference value="Condition/mii-exa-diagnose-condition-multiple-codings"/>
          </condition>
          <use>
            <coding>
              <system value="http://terminology.hl7.org/CodeSystem/diagnosis-role"/>
              <code value="CC"/>
              <display value="Chief complaint"/>
            </coding>
          </use>
        </diagnosis>
        <diagnosis>
          <condition>
            <reference value="Condition/mii-exa-diagnose-condition-multiple-codings"/>
          </condition>
          <use>
            <coding>
              <system value="http://terminology.hl7.org/CodeSystem/diagnosis-role"/>
              <code value="AD"/>
              <display value="Admission diagnosis"/>
            </coding>
          </use>
        </diagnosis>
        <diagnosis>
          <condition>
            <reference value="Condition/mii-exa-diagnose-mehrfachcodierung-primaercode"/>
          </condition>
          <use>
            <coding>
              <system value="http://fhir.de/CodeSystem/KontaktDiagnoseProzedur"/>
              <code value="treatment-diagnosis"/>
            </coding>
          </use>
        </diagnosis>
        <account>
          <identifier>
            <system value="https://www.charite.de/fhir/sid/fallnummer"/>
            <value value="F-2020-000123"/>
          </identifier>
          <display value="Account A1 - DRG G23B Appendektomie ohne schwere CC"/>
        </account>
        <serviceProvider>
          <identifier>
            <system value="http://fhir.de/sid/dkgev/iknr"/>
            <value value="260950472"/>
          </identifier>
        </serviceProvider>
        <partOf>
          <reference value="Encounter/mii-exa-fall-kontakt-gesundheitseinrichtung-1"/>
        </partOf>
      </Encounter>
    </resource>
    <request>
      <method value="POST"/>
      <url value="Encounter"/>
    </request>
  </entry>
  <entry>
    <fullUrl value="https://www.medizininformatik-initiative.de/Condition/mii-exa-diagnose-mehrfachcodierung-primaercode"/>
    <resource>
      <Condition>
        <id value="mii-exa-diagnose-mehrfachcodierung-primaercode"/>
        <meta>
          <profile value="https://www.medizininformatik-initiative.de/fhir/core/modul-diagnose/StructureDefinition/Diagnose|2026.0.0-dev.1"/>
          <security>
            <system value="http://terminology.hl7.org/CodeSystem/v3-ActReason"/>
            <code value="HTEST"/>
            <display value="test health data"/>
          </security>
        </meta>
        <text>
          <status value="generated"/><div xmlns="http://www.w3.org/1999/xhtml"><div xml:lang="en" lang="en"><hr/><p><b>English</b></p><hr/><a name="Condition_mii-exa-diagnose-mehrfachcodierung-primaercode"> </a><p class="res-header-id"><b>Generated Narrative: Condition mii-exa-diagnose-mehrfachcodierung-primaercode</b></p><a name="mii-exa-diagnose-mehrfachcodierung-primaercode"> </a><a name="hcmii-exa-diagnose-mehrfachcodierung-primaercode"> </a><div style="display: inline-block; background-color: #d9e0e7; padding: 6px; margin: 4px; border: 1px solid #8da1b4; border-radius: 5px; line-height: 60%"><p style="margin-bottom: 0px"/><p style="margin-bottom: 0px">Profile: <a href="StructureDefinition-mii-pr-diagnose-condition.html">MII PR Diagnose Conditionversion: null2026.0.0-dev.1)</a></p><p style="margin-bottom: 0px">Security Label: test health data (Details: ActReason code HTEST = 'test health data')</p></div><p><b>clinicalStatus</b>: <span title="Codes:{http://terminology.hl7.org/CodeSystem/condition-clinical active}">Active</span></p><p><b>verificationStatus</b>: <span title="Codes:{http://terminology.hl7.org/CodeSystem/condition-ver-status confirmed}">Confirmed</span></p><p><b>code</b>: <span title="Codes:{http://fhir.de/CodeSystem/bfarm/icd-10-gm A54.4}, {http://fhir.de/CodeSystem/bfarm/alpha-id I97525}">Gonokokkeninfektion des Muskel-Skelett-Systems</span></p><p><b>subject</b>: <a href="Patient-mii-exa-person-patient-1.html">Maja Julia Van-der-Dussen (official) Female, DoB: 1998-09-19 ( Medical record number (use: usual, ))</a></p><p><b>encounter</b>: <a href="Encounter-mii-exa-fall-kontakt-gesundheitseinrichtung-8.html">Encounter: identifier = Visit number; status = finished; class = ambulatory (ActCode#AMB); period = 2019-09-26 10:00:00+0200 --&gt; 2019-09-26 12:00:00+0200</a></p><p><b>onset</b>: 2019-09-26</p><p><b>recordedDate</b>: 2019-09-26 11:30:00+0200</p></div></div>
        </text>
        <clinicalStatus>
          <coding>
            <system value="http://terminology.hl7.org/CodeSystem/condition-clinical"/>
            <code value="active"/>
          </coding>
        </clinicalStatus>
        <verificationStatus>
          <coding>
            <system value="http://terminology.hl7.org/CodeSystem/condition-ver-status"/>
            <code value="confirmed"/>
          </coding>
        </verificationStatus>
        <code>
          <coding>
            <extension url="http://fhir.de/StructureDefinition/icd-10-gm-mehrfachcodierungs-kennzeichen">
              <valueCoding>
                <system value="http://fhir.de/CodeSystem/icd-10-gm-mehrfachcodierungs-kennzeichen"/>
                <code value="†"/>
              </valueCoding>
            </extension>
            <extension url="http://fhir.de/StructureDefinition/seitenlokalisation">
              <valueCoding>
                <system value="https://fhir.kbv.de/CodeSystem/KBV_CS_SFHIR_ICD_SEITENLOKALISATION"/>
                <code value="L"/>
                <display value="links"/>
              </valueCoding>
            </extension>
            <extension url="http://fhir.de/StructureDefinition/icd-10-gm-diagnosesicherheit">
              <valueCoding>
                <system value="https://fhir.kbv.de/CodeSystem/KBV_CS_SFHIR_ICD_DIAGNOSESICHERHEIT"/>
                <code value="G"/>
                <display value="Gesicherte Diagnose"/>
              </valueCoding>
            </extension>
            <system value="http://fhir.de/CodeSystem/bfarm/icd-10-gm"/>
            <version value="2020"/>
            <code value="A54.4"/>
            <display value="Gonokokkeninfektion des Muskel-Skelett-Systems"/>
          </coding>
          <coding>
            <system value="http://fhir.de/CodeSystem/bfarm/alpha-id"/>
            <version value="2020"/>
            <code value="I97525"/>
          </coding>
        </code>
        <subject>
          <reference value="Patient/mii-exa-person-patient-1"/>
        </subject>
        <encounter>
          <reference value="Encounter/mii-exa-fall-kontakt-gesundheitseinrichtung-8"/>
        </encounter>
        <onsetDateTime value="2019-09-26"/>
        <recordedDate value="2019-09-26T11:30:00+02:00"/>
      </Condition>
    </resource>
    <request>
      <method value="POST"/>
      <url value="Condition"/>
    </request>
  </entry>
  <entry>
    <fullUrl value="https://www.medizininformatik-initiative.de/Condition/mii-exa-diagnose-mehrfachcodierung-sekundaercode"/>
    <resource>
      <Condition>
        <id value="mii-exa-diagnose-mehrfachcodierung-sekundaercode"/>
        <meta>
          <profile value="https://www.medizininformatik-initiative.de/fhir/core/modul-diagnose/StructureDefinition/Diagnose|2026.0.0-dev.1"/>
          <security>
            <system value="http://terminology.hl7.org/CodeSystem/v3-ActReason"/>
            <code value="HTEST"/>
            <display value="test health data"/>
          </security>
        </meta>
        <text>
          <status value="extensions"/><div xmlns="http://www.w3.org/1999/xhtml"><div xml:lang="en" lang="en"><hr/><p><b>English</b></p><hr/><a name="Condition_mii-exa-diagnose-mehrfachcodierung-sekundaercode"> </a><p class="res-header-id"><b>Generated Narrative: Condition mii-exa-diagnose-mehrfachcodierung-sekundaercode</b></p><a name="mii-exa-diagnose-mehrfachcodierung-sekundaercode"> </a><a name="hcmii-exa-diagnose-mehrfachcodierung-sekundaercode"> </a><div style="display: inline-block; background-color: #d9e0e7; padding: 6px; margin: 4px; border: 1px solid #8da1b4; border-radius: 5px; line-height: 60%"><p style="margin-bottom: 0px"/><p style="margin-bottom: 0px">Profile: <a href="StructureDefinition-mii-pr-diagnose-condition.html">MII PR Diagnose Conditionversion: null2026.0.0-dev.1)</a></p><p style="margin-bottom: 0px">Security Label: test health data (Details: ActReason code HTEST = 'test health data')</p></div><p><b>Condition Related</b>: <a href="Condition-mii-exa-diagnose-mehrfachcodierung-primaercode.html">Condition Gonokokkeninfektion des Muskel-Skelett-Systems</a></p><p><b>clinicalStatus</b>: <span title="Codes:{http://terminology.hl7.org/CodeSystem/condition-clinical active}">Active</span></p><p><b>verificationStatus</b>: <span title="Codes:{http://terminology.hl7.org/CodeSystem/condition-ver-status confirmed}">Confirmed</span></p><p><b>code</b>: <span title="Codes:{http://fhir.de/CodeSystem/bfarm/icd-10-gm M73.04}">Bursitis gonorrhoica: Hand</span></p><p><b>subject</b>: <a href="Patient-mii-exa-person-patient-1.html">Maja Julia Van-der-Dussen (official) Female, DoB: 1998-09-19 ( Medical record number (use: usual, ))</a></p><p><b>encounter</b>: <a href="Encounter-mii-exa-fall-kontakt-gesundheitseinrichtung-8.html">Encounter: identifier = Visit number; status = finished; class = ambulatory (ActCode#AMB); period = 2019-09-26 10:00:00+0200 --&gt; 2019-09-26 12:00:00+0200</a></p><p><b>onset</b>: 2019-09-26</p><p><b>recordedDate</b>: 2019-09-26 11:30:00+0200</p></div></div>
        </text>
        <extension url="http://hl7.org/fhir/StructureDefinition/condition-related">
          <valueReference>
            <reference value="Condition/mii-exa-diagnose-mehrfachcodierung-primaercode"/>
          </valueReference>
        </extension>
        <clinicalStatus>
          <coding>
            <system value="http://terminology.hl7.org/CodeSystem/condition-clinical"/>
            <code value="active"/>
          </coding>
        </clinicalStatus>
        <verificationStatus>
          <coding>
            <system value="http://terminology.hl7.org/CodeSystem/condition-ver-status"/>
            <code value="confirmed"/>
          </coding>
        </verificationStatus>
        <code>
          <coding>
            <extension url="http://fhir.de/StructureDefinition/icd-10-gm-mehrfachcodierungs-kennzeichen">
              <valueCoding>
                <system value="http://fhir.de/CodeSystem/icd-10-gm-mehrfachcodierungs-kennzeichen"/>
                <code value="*"/>
              </valueCoding>
            </extension>
            <system value="http://fhir.de/CodeSystem/bfarm/icd-10-gm"/>
            <version value="2020"/>
            <code value="M73.04"/>
            <display value="Bursitis gonorrhoica: Hand"/>
          </coding>
        </code>
        <subject>
          <reference value="Patient/mii-exa-person-patient-1"/>
        </subject>
        <encounter>
          <reference value="Encounter/mii-exa-fall-kontakt-gesundheitseinrichtung-8"/>
        </encounter>
        <onsetDateTime value="2019-09-26"/>
        <recordedDate value="2019-09-26T11:30:00+02:00"/>
      </Condition>
    </resource>
    <request>
      <method value="POST"/>
      <url value="Condition"/>
    </request>
  </entry>
  <entry>
    <fullUrl value="https://www.medizininformatik-initiative.de/Condition/mii-exa-diagnose-appendicitis"/>
    <resource>
      <Condition>
        <id value="mii-exa-diagnose-appendicitis"/>
        <meta>
          <profile value="https://www.medizininformatik-initiative.de/fhir/core/modul-diagnose/StructureDefinition/Diagnose|2026.0.0-dev.1"/>
          <security>
            <system value="http://terminology.hl7.org/CodeSystem/v3-ActReason"/>
            <code value="HTEST"/>
            <display value="test health data"/>
          </security>
        </meta>
        <text>
          <status value="extensions"/><div xmlns="http://www.w3.org/1999/xhtml"><div xml:lang="en" lang="en"><hr/><p><b>English</b></p><hr/><a name="Condition_mii-exa-diagnose-appendicitis"> </a><p class="res-header-id"><b>Generated Narrative: Condition mii-exa-diagnose-appendicitis</b></p><a name="mii-exa-diagnose-appendicitis"> </a><a name="hcmii-exa-diagnose-appendicitis"> </a><div style="display: inline-block; background-color: #d9e0e7; padding: 6px; margin: 4px; border: 1px solid #8da1b4; border-radius: 5px; line-height: 60%"><p style="margin-bottom: 0px"/><p style="margin-bottom: 0px">Profile: <a href="StructureDefinition-mii-pr-diagnose-condition.html">MII PR Diagnose Conditionversion: null2026.0.0-dev.1)</a></p><p style="margin-bottom: 0px">Security Label: test health data (Details: ActReason code HTEST = 'test health data')</p></div><p><b>Condition Asserted Date</b>: 2020-01-08 07:30:00+0100</p><p><b>clinicalStatus</b>: <span title="Codes:{http://terminology.hl7.org/CodeSystem/condition-clinical resolved}">Resolved</span></p><p><b>verificationStatus</b>: <span title="Codes:{http://terminology.hl7.org/CodeSystem/condition-ver-status confirmed}">Confirmed</span></p><p><b>code</b>: <span title="Codes:{http://fhir.de/CodeSystem/bfarm/icd-10-gm K35.80}, {http://snomed.info/sct 85189001}">Akute Appendizitis, nicht näher bezeichnet</span></p><p><b>subject</b>: <a href="Patient-mii-exa-person-patient-1.html">Maja Julia Van-der-Dussen (official) Female, DoB: 1998-09-19 ( Medical record number (use: usual, ))</a></p><p><b>encounter</b>: <a href="Encounter-mii-exa-fall-kontakt-gesundheitseinrichtung-2.html">Encounter: identifier = Visit number; status = finished; class = inpatient encounter (ActCode#IMP); type = Abteilungskontakt; serviceType = Allgemeine Chirurgie; period = 2020-01-08 09:00:00+0100 --&gt; 2020-01-11 23:59:00+0100</a></p><p><b>onset</b>: 2020-01-08 04:00:00+0100</p><p><b>recordedDate</b>: 2020-01-08 09:00:00+0100</p></div></div>
        </text>
        <extension url="http://hl7.org/fhir/StructureDefinition/condition-assertedDate">
          <valueDateTime value="2020-01-08T07:30:00+01:00"/>
        </extension>
        <clinicalStatus>
          <coding>
            <system value="http://terminology.hl7.org/CodeSystem/condition-clinical"/>
            <code value="resolved"/>
          </coding>
        </clinicalStatus>
        <verificationStatus>
          <coding>
            <system value="http://terminology.hl7.org/CodeSystem/condition-ver-status"/>
            <code value="confirmed"/>
          </coding>
        </verificationStatus>
        <code>
          <coding>
            <system value="http://fhir.de/CodeSystem/bfarm/icd-10-gm"/>
            <version value="2020"/>
            <code value="K35.80"/>
            <display value="Akute Appendizitis, nicht näher bezeichnet"/>
          </coding>
          <coding>
            <system value="http://snomed.info/sct"/>
            <code value="85189001"/>
            <display value="Acute appendicitis"/>
          </coding>
        </code>
        <subject>
          <reference value="Patient/mii-exa-person-patient-1"/>
        </subject>
        <encounter>
          <reference value="Encounter/mii-exa-fall-kontakt-gesundheitseinrichtung-2"/>
        </encounter>
        <onsetDateTime value="2020-01-08T04:00:00+01:00"/>
        <recordedDate value="2020-01-08T09:00:00+01:00"/>
      </Condition>
    </resource>
    <request>
      <method value="POST"/>
      <url value="Condition"/>
    </request>
  </entry>
  <entry>
    <fullUrl value="https://www.medizininformatik-initiative.de/Condition/mii-exa-diagnose-condition-elbow-contusion"/>
    <resource>
      <Condition>
        <id value="mii-exa-diagnose-condition-elbow-contusion"/>
        <meta>
          <profile value="https://www.medizininformatik-initiative.de/fhir/core/modul-diagnose/StructureDefinition/Diagnose|2026.0.0-dev.1"/>
          <security>
            <system value="http://terminology.hl7.org/CodeSystem/v3-ActReason"/>
            <code value="HTEST"/>
            <display value="test health data"/>
          </security>
        </meta>
        <text>
          <status value="extensions"/><div xmlns="http://www.w3.org/1999/xhtml"><div xml:lang="en" lang="en"><hr/><p><b>English</b></p><hr/><a name="Condition_mii-exa-diagnose-condition-elbow-contusion"> </a><p class="res-header-id"><b>Generated Narrative: Condition mii-exa-diagnose-condition-elbow-contusion</b></p><a name="mii-exa-diagnose-condition-elbow-contusion"> </a><a name="hcmii-exa-diagnose-condition-elbow-contusion"> </a><div style="display: inline-block; background-color: #d9e0e7; padding: 6px; margin: 4px; border: 1px solid #8da1b4; border-radius: 5px; line-height: 60%"><p style="margin-bottom: 0px"/><p style="margin-bottom: 0px">Profile: <a href="StructureDefinition-mii-pr-diagnose-condition.html">MII PR Diagnose Conditionversion: null2026.0.0-dev.1)</a></p><p style="margin-bottom: 0px">Security Label: test health data (Details: ActReason code HTEST = 'test health data')</p></div><p><b>Condition Asserted Date</b>: 2020-01-08 08:00:00+0100</p><p><b>clinicalStatus</b>: <span title="Codes:{http://terminology.hl7.org/CodeSystem/condition-clinical resolved}">Resolved</span></p><p><b>verificationStatus</b>: <span title="Codes:{http://terminology.hl7.org/CodeSystem/condition-ver-status confirmed}">Confirmed</span></p><p><b>code</b>: <span title="Codes:{http://fhir.de/CodeSystem/bfarm/icd-10-gm S50.0}, {http://snomed.info/sct 91613004}">Prellung des Ellenbogens</span></p><p><b>subject</b>: <a href="Patient-mii-exa-person-patient-1.html">Maja Julia Van-der-Dussen (official) Female, DoB: 1998-09-19 ( Medical record number (use: usual, ))</a></p><p><b>encounter</b>: <a href="Encounter-mii-exa-fall-kontakt-gesundheitseinrichtung-2.html">Encounter: identifier = Visit number; status = finished; class = inpatient encounter (ActCode#IMP); type = Abteilungskontakt; serviceType = Allgemeine Chirurgie; period = 2020-01-08 09:00:00+0100 --&gt; 2020-01-11 23:59:00+0100</a></p><p><b>onset</b>: 2020-01-08 06:00:00+0100</p><p><b>recordedDate</b>: 2020-01-08 09:00:00+0100</p></div></div>
        </text>
        <extension url="http://hl7.org/fhir/StructureDefinition/condition-assertedDate">
          <valueDateTime value="2020-01-08T08:00:00+01:00"/>
        </extension>
        <clinicalStatus>
          <coding>
            <system value="http://terminology.hl7.org/CodeSystem/condition-clinical"/>
            <code value="resolved"/>
          </coding>
        </clinicalStatus>
        <verificationStatus>
          <coding>
            <system value="http://terminology.hl7.org/CodeSystem/condition-ver-status"/>
            <code value="confirmed"/>
          </coding>
        </verificationStatus>
        <code>
          <coding>
            <system value="http://fhir.de/CodeSystem/bfarm/icd-10-gm"/>
            <version value="2020"/>
            <code value="S50.0"/>
            <display value="Prellung des Ellenbogens"/>
          </coding>
          <coding>
            <system value="http://snomed.info/sct"/>
            <code value="91613004"/>
            <display value="Contusion of elbow"/>
          </coding>
        </code>
        <subject>
          <reference value="Patient/mii-exa-person-patient-1"/>
        </subject>
        <encounter>
          <reference value="Encounter/mii-exa-fall-kontakt-gesundheitseinrichtung-2"/>
        </encounter>
        <onsetDateTime value="2020-01-08T06:00:00+01:00"/>
        <recordedDate value="2020-01-08T09:00:00+01:00"/>
      </Condition>
    </resource>
    <request>
      <method value="POST"/>
      <url value="Condition"/>
    </request>
  </entry>
  <entry>
    <fullUrl value="https://www.medizininformatik-initiative.de/Condition/mii-exa-diagnose-condition-multiple-codings"/>
    <resource>
      <Condition>
        <id value="mii-exa-diagnose-condition-multiple-codings"/>
        <meta>
          <profile value="https://www.medizininformatik-initiative.de/fhir/core/modul-diagnose/StructureDefinition/Diagnose|2026.0.0-dev.1"/>
          <security>
            <system value="http://terminology.hl7.org/CodeSystem/v3-ActReason"/>
            <code value="HTEST"/>
            <display value="test health data"/>
          </security>
        </meta>
        <text>
          <status value="extensions"/><div xmlns="http://www.w3.org/1999/xhtml"><div xml:lang="en" lang="en"><hr/><p><b>English</b></p><hr/><a name="Condition_mii-exa-diagnose-condition-multiple-codings"> </a><p class="res-header-id"><b>Generated Narrative: Condition mii-exa-diagnose-condition-multiple-codings</b></p><a name="mii-exa-diagnose-condition-multiple-codings"> </a><a name="hcmii-exa-diagnose-condition-multiple-codings"> </a><div style="display: inline-block; background-color: #d9e0e7; padding: 6px; margin: 4px; border: 1px solid #8da1b4; border-radius: 5px; line-height: 60%"><p style="margin-bottom: 0px"/><p style="margin-bottom: 0px">Profile: <a href="StructureDefinition-mii-pr-diagnose-condition.html">MII PR Diagnose Conditionversion: null2026.0.0-dev.1)</a></p><p style="margin-bottom: 0px">Security Label: test health data (Details: ActReason code HTEST = 'test health data')</p></div><p><b>Condition Asserted Date</b>: 2020-01-13 14:00:00+0100</p><p><b>clinicalStatus</b>: <span title="Codes:{http://terminology.hl7.org/CodeSystem/condition-clinical active}">Active</span></p><p><b>verificationStatus</b>: <span title="Codes:{http://terminology.hl7.org/CodeSystem/condition-ver-status confirmed}">Confirmed</span></p><p><b>code</b>: <span title="Codes:{http://fhir.de/CodeSystem/bfarm/icd-10-gm H83.8}, {http://fhir.de/CodeSystem/bfarm/alpha-id I125918}, {http://www.orpha.net 420402}">Sonstige näher bezeichnete Krankheiten des Innenohres</span></p><p><b>subject</b>: <a href="Patient-mii-exa-person-patient-1.html">Maja Julia Van-der-Dussen (official) Female, DoB: 1998-09-19 ( Medical record number (use: usual, ))</a></p><p><b>encounter</b>: <a href="Encounter-mii-exa-fall-kontakt-gesundheitseinrichtung-7.html">Encounter: identifier = Visit number; status = finished; class = inpatient encounter (ActCode#IMP); type = Abteilungskontakt; serviceType = Innere Medizin; period = 2020-01-12 00:00:00+0100 --&gt; 2020-01-17 18:00:00+0100</a></p><p><b>onset</b>: 2020-01-13 14:00:00+0100</p><p><b>recordedDate</b>: 2020-01-13 16:00:00+0100</p></div></div>
        </text>
        <extension url="http://hl7.org/fhir/StructureDefinition/condition-assertedDate">
          <valueDateTime value="2020-01-13T14:00:00+01:00"/>
        </extension>
        <clinicalStatus>
          <coding>
            <system value="http://terminology.hl7.org/CodeSystem/condition-clinical"/>
            <code value="active"/>
          </coding>
        </clinicalStatus>
        <verificationStatus>
          <coding>
            <system value="http://terminology.hl7.org/CodeSystem/condition-ver-status"/>
            <code value="confirmed"/>
          </coding>
        </verificationStatus>
        <code>
          <coding>
            <system value="http://fhir.de/CodeSystem/bfarm/icd-10-gm"/>
            <version value="2020"/>
            <code value="H83.8"/>
            <display value="Sonstige näher bezeichnete Krankheiten des Innenohres"/>
          </coding>
          <coding>
            <system value="http://fhir.de/CodeSystem/bfarm/alpha-id"/>
            <version value="2020"/>
            <code value="I125918"/>
          </coding>
          <coding>
            <system value="http://www.orpha.net"/>
            <code value="420402"/>
            <display value="Semicircular canal dehiscence syndrome"/>
          </coding>
        </code>
        <subject>
          <reference value="Patient/mii-exa-person-patient-1"/>
        </subject>
        <encounter>
          <reference value="Encounter/mii-exa-fall-kontakt-gesundheitseinrichtung-7"/>
        </encounter>
        <onsetDateTime value="2020-01-13T14:00:00+01:00"/>
        <recordedDate value="2020-01-13T16:00:00+01:00"/>
      </Condition>
    </resource>
    <request>
      <method value="POST"/>
      <url value="Condition"/>
    </request>
  </entry>
  <entry>
    <fullUrl value="https://www.medizininformatik-initiative.de/Procedure/mii-exa-prozedur-procedure"/>
    <resource>
      <Procedure>
        <id value="mii-exa-prozedur-procedure"/>
        <meta>
          <profile value="https://www.medizininformatik-initiative.de/fhir/core/modul-prozedur/StructureDefinition/Procedure|2026.0.0-dev.1"/>
          <security>
            <system value="http://terminology.hl7.org/CodeSystem/v3-ActReason"/>
            <code value="HTEST"/>
            <display value="test health data"/>
          </security>
        </meta>
        <text>
          <status value="extensions"/><div xmlns="http://www.w3.org/1999/xhtml"><div xml:lang="en" lang="en"><hr/><p><b>English</b></p><hr/><a name="Procedure_mii-exa-prozedur-procedure"> </a><p class="res-header-id"><b>Generated Narrative: Procedure mii-exa-prozedur-procedure</b></p><a name="mii-exa-prozedur-procedure"> </a><a name="hcmii-exa-prozedur-procedure"> </a><div style="display: inline-block; background-color: #d9e0e7; padding: 6px; margin: 4px; border: 1px solid #8da1b4; border-radius: 5px; line-height: 60%"><p style="margin-bottom: 0px"/><p style="margin-bottom: 0px">Profile: <a href="StructureDefinition-mii-pr-prozedur-procedure.html">MII PR Prozedur Procedureversion: null2026.0.0-dev.1)</a></p><p style="margin-bottom: 0px">Security Label: test health data (Details: ActReason code HTEST = 'test health data')</p></div><p><b>ExtensionProzedurDokumentationsdatum</b>: 2020-01-08 23:00:00+0100</p><p><b>MII EX Prozedur Durchführungsabsicht</b>: <a href="http://snomed.info/id/262202000">SNOMED CT: 262202000</a> (262202000)</p><p><b>status</b>: Completed</p><p><b>category</b>: <span title="Codes:{http://snomed.info/sct 387713003}">387713003</span></p><p><b>code</b>: <span title="Codes:{http://fhir.de/CodeSystem/bfarm/ops 5-470}, {http://snomed.info/sct 80146002}">Appendektomie</span></p><p><b>subject</b>: <a href="Patient-mii-exa-person-patient-1.html">Maja Julia Van-der-Dussen (official) Female, DoB: 1998-09-19 ( Medical record number (use: usual, ))</a></p><p><b>encounter</b>: <a href="Encounter-mii-exa-fall-kontakt-gesundheitseinrichtung-2.html">Encounter: identifier = Visit number; status = finished; class = inpatient encounter (ActCode#IMP); type = Abteilungskontakt; serviceType = Allgemeine Chirurgie; period = 2020-01-08 09:00:00+0100 --&gt; 2020-01-11 23:59:00+0100</a></p><p><b>performed</b>: 2020-01-08 20:30:00+0100 --&gt; 2020-01-08 22:15:00+0100</p><p><b>bodySite</b>: <span title="Codes:{http://snomed.info/sct 181255000}">Appendix</span></p></div></div>
        </text>
        <extension url="http://fhir.de/StructureDefinition/ProzedurDokumentationsdatum">
          <valueDateTime value="2020-01-08T23:00:00+01:00"/>
        </extension>
        <extension url="https://www.medizininformatik-initiative.de/fhir/core/modul-prozedur/StructureDefinition/Durchfuehrungsabsicht">
          <valueCoding>
            <system value="http://snomed.info/sct"/>
            <code value="262202000"/>
          </valueCoding>
        </extension>
        <status value="completed"/>
        <category>
          <coding>
            <system value="http://snomed.info/sct"/>
            <code value="387713003"/>
          </coding>
        </category>
        <code>
          <coding>
            <system value="http://fhir.de/CodeSystem/bfarm/ops"/>
            <version value="2020"/>
            <code value="5-470"/>
          </coding>
          <coding>
            <system value="http://snomed.info/sct"/>
            <code value="80146002"/>
          </coding>
          <text value="Appendektomie"/>
        </code>
        <subject>
          <reference value="Patient/mii-exa-person-patient-1"/>
        </subject>
        <encounter>
          <reference value="Encounter/mii-exa-fall-kontakt-gesundheitseinrichtung-2"/>
        </encounter>
        <performedPeriod>
          <start value="2020-01-08T20:30:00+01:00"/>
          <end value="2020-01-08T22:15:00+01:00"/>
        </performedPeriod>
        <bodySite>
          <coding>
            <system value="http://snomed.info/sct"/>
            <code value="181255000"/>
          </coding>
          <text value="Appendix"/>
        </bodySite>
      </Procedure>
    </resource>
    <request>
      <method value="POST"/>
      <url value="Procedure"/>
    </request>
  </entry>
  <entry>
    <fullUrl value="https://www.medizininformatik-initiative.de/Procedure/mii-exa-prozedur-procedure-2"/>
    <resource>
      <Procedure>
        <id value="mii-exa-prozedur-procedure-2"/>
        <meta>
          <profile value="https://www.medizininformatik-initiative.de/fhir/core/modul-prozedur/StructureDefinition/Procedure|2026.0.0-dev.1"/>
          <security>
            <system value="http://terminology.hl7.org/CodeSystem/v3-ActReason"/>
            <code value="HTEST"/>
            <display value="test health data"/>
          </security>
        </meta>
        <text>
          <status value="extensions"/><div xmlns="http://www.w3.org/1999/xhtml"><div xml:lang="en" lang="en"><hr/><p><b>English</b></p><hr/><a name="Procedure_mii-exa-prozedur-procedure-2"> </a><p class="res-header-id"><b>Generated Narrative: Procedure mii-exa-prozedur-procedure-2</b></p><a name="mii-exa-prozedur-procedure-2"> </a><a name="hcmii-exa-prozedur-procedure-2"> </a><div style="display: inline-block; background-color: #d9e0e7; padding: 6px; margin: 4px; border: 1px solid #8da1b4; border-radius: 5px; line-height: 60%"><p style="margin-bottom: 0px"/><p style="margin-bottom: 0px">Profile: <a href="StructureDefinition-mii-pr-prozedur-procedure.html">MII PR Prozedur Procedureversion: null2026.0.0-dev.1)</a></p><p style="margin-bottom: 0px">Security Label: test health data (Details: ActReason code HTEST = 'test health data')</p></div><p><b>ExtensionProzedurDokumentationsdatum</b>: 2020-01-17 00:00:00+0100</p><p><b>MII EX Prozedur Durchführungsabsicht</b>: <a href="http://snomed.info/id/262202000">SNOMED CT: 262202000</a> (262202000)</p><p><b>status</b>: Completed</p><p><b>category</b>: <span title="Codes:{http://snomed.info/sct 277132007}">277132007</span></p><p><b>code</b>: <span title="Codes:{http://fhir.de/CodeSystem/bfarm/ops 8-561.1}">Funktionsorientierte physikalische Monotherapie</span></p><p><b>subject</b>: <a href="Patient-mii-exa-person-patient-1.html">Maja Julia Van-der-Dussen (official) Female, DoB: 1998-09-19 ( Medical record number (use: usual, ))</a></p><p><b>encounter</b>: <a href="Encounter-mii-exa-fall-kontakt-gesundheitseinrichtung-7.html">Encounter: identifier = Visit number; status = finished; class = inpatient encounter (ActCode#IMP); type = Abteilungskontakt; serviceType = Innere Medizin; period = 2020-01-12 00:00:00+0100 --&gt; 2020-01-17 18:00:00+0100</a></p><p><b>performed</b>: 2020-01-13 00:00:00+0100 --&gt; 2020-01-16 00:00:00+0100</p><p><b>bodySite</b>: <span title="Codes:{http://snomed.info/sct 85562004}">Hand structure</span></p></div></div>
        </text>
        <extension url="http://fhir.de/StructureDefinition/ProzedurDokumentationsdatum">
          <valueDateTime value="2020-01-17T00:00:00+01:00"/>
        </extension>
        <extension url="https://www.medizininformatik-initiative.de/fhir/core/modul-prozedur/StructureDefinition/Durchfuehrungsabsicht">
          <valueCoding>
            <system value="http://snomed.info/sct"/>
            <code value="262202000"/>
          </valueCoding>
        </extension>
        <status value="completed"/>
        <category>
          <coding>
            <system value="http://snomed.info/sct"/>
            <code value="277132007"/>
          </coding>
        </category>
        <code>
          <coding>
            <system value="http://fhir.de/CodeSystem/bfarm/ops"/>
            <version value="2020"/>
            <code value="8-561.1"/>
          </coding>
          <text value="Funktionsorientierte physikalische Monotherapie"/>
        </code>
        <subject>
          <reference value="Patient/mii-exa-person-patient-1"/>
        </subject>
        <encounter>
          <reference value="Encounter/mii-exa-fall-kontakt-gesundheitseinrichtung-7"/>
        </encounter>
        <performedPeriod>
          <start value="2020-01-13T00:00:00+01:00"/>
          <end value="2020-01-16T00:00:00+01:00"/>
        </performedPeriod>
        <bodySite>
          <coding>
            <system value="http://snomed.info/sct"/>
            <code value="85562004"/>
            <display value="Hand structure"/>
          </coding>
        </bodySite>
      </Procedure>
    </resource>
    <request>
      <method value="POST"/>
      <url value="Procedure"/>
    </request>
  </entry>
  <entry>
    <fullUrl value="https://www.medizininformatik-initiative.de/Procedure/mii-exa-prozedur-imaging"/>
    <resource>
      <Procedure>
        <id value="mii-exa-prozedur-imaging"/>
        <meta>
          <profile value="https://www.medizininformatik-initiative.de/fhir/core/modul-prozedur/StructureDefinition/Procedure|2026.0.0-dev.1"/>
          <security>
            <system value="http://terminology.hl7.org/CodeSystem/v3-ActReason"/>
            <code value="HTEST"/>
            <display value="test health data"/>
          </security>
        </meta>
        <text>
          <status value="extensions"/><div xmlns="http://www.w3.org/1999/xhtml"><div xml:lang="en" lang="en"><hr/><p><b>English</b></p><hr/><a name="Procedure_mii-exa-prozedur-imaging"> </a><p class="res-header-id"><b>Generated Narrative: Procedure mii-exa-prozedur-imaging</b></p><a name="mii-exa-prozedur-imaging"> </a><a name="hcmii-exa-prozedur-imaging"> </a><div style="display: inline-block; background-color: #d9e0e7; padding: 6px; margin: 4px; border: 1px solid #8da1b4; border-radius: 5px; line-height: 60%"><p style="margin-bottom: 0px"/><p style="margin-bottom: 0px">Profile: <a href="StructureDefinition-mii-pr-prozedur-procedure.html">MII PR Prozedur Procedureversion: null2026.0.0-dev.1)</a></p><p style="margin-bottom: 0px">Security Label: test health data (Details: ActReason code HTEST = 'test health data')</p></div><p><b>ExtensionProzedurDokumentationsdatum</b>: 2020-01-08 10:30:00+0100</p><p><b>MII EX Prozedur Durchführungsabsicht</b>: <a href="http://snomed.info/id/261004008">SNOMED CT: 261004008</a> (261004008)</p><p><b>status</b>: Completed</p><p><b>category</b>: <span title="Codes:{http://snomed.info/sct 363679005}">363679005</span></p><p><b>code</b>: <span title="Codes:{http://fhir.de/CodeSystem/bfarm/ops 3-207}, {http://snomed.info/sct 169070004}">Native Computertomographie des Abdomens</span></p><p><b>subject</b>: <a href="Patient-mii-exa-person-patient-1.html">Maja Julia Van-der-Dussen (official) Female, DoB: 1998-09-19 ( Medical record number (use: usual, ))</a></p><p><b>encounter</b>: <a href="Encounter-mii-exa-fall-kontakt-gesundheitseinrichtung-2.html">Encounter: identifier = Visit number; status = finished; class = inpatient encounter (ActCode#IMP); type = Abteilungskontakt; serviceType = Allgemeine Chirurgie; period = 2020-01-08 09:00:00+0100 --&gt; 2020-01-11 23:59:00+0100</a></p><p><b>performed</b>: 2020-01-08 10:00:00+0100</p><p><b>bodySite</b>: <span title="Codes:{http://snomed.info/sct 818981001}">Abdomen</span></p></div></div>
        </text>
        <extension url="http://fhir.de/StructureDefinition/ProzedurDokumentationsdatum">
          <valueDateTime value="2020-01-08T10:30:00+01:00"/>
        </extension>
        <extension url="https://www.medizininformatik-initiative.de/fhir/core/modul-prozedur/StructureDefinition/Durchfuehrungsabsicht">
          <valueCoding>
            <system value="http://snomed.info/sct"/>
            <code value="261004008"/>
          </valueCoding>
        </extension>
        <status value="completed"/>
        <category>
          <coding>
            <system value="http://snomed.info/sct"/>
            <code value="363679005"/>
          </coding>
        </category>
        <code>
          <coding>
            <system value="http://fhir.de/CodeSystem/bfarm/ops"/>
            <version value="2020"/>
            <code value="3-207"/>
          </coding>
          <coding>
            <system value="http://snomed.info/sct"/>
            <code value="169070004"/>
          </coding>
          <text value="Native Computertomographie des Abdomens"/>
        </code>
        <subject>
          <reference value="Patient/mii-exa-person-patient-1"/>
        </subject>
        <encounter>
          <reference value="Encounter/mii-exa-fall-kontakt-gesundheitseinrichtung-2"/>
        </encounter>
        <performedDateTime value="2020-01-08T10:00:00+01:00"/>
        <bodySite>
          <coding>
            <system value="http://snomed.info/sct"/>
            <code value="818981001"/>
          </coding>
          <text value="Abdomen"/>
        </bodySite>
      </Procedure>
    </resource>
    <request>
      <method value="POST"/>
      <url value="Procedure"/>
    </request>
  </entry>
  <entry>
    <fullUrl value="https://www.medizininformatik-initiative.de/Observation/mii-exa-person-observation-vitalstatus"/>
    <resource>
      <Observation>
        <id value="mii-exa-person-observation-vitalstatus"/>
        <meta>
          <profile value="https://www.medizininformatik-initiative.de/fhir/core/modul-person/StructureDefinition/Vitalstatus|2026.0.0-dev.1"/>
          <security>
            <system value="http://terminology.hl7.org/CodeSystem/v3-ActReason"/>
            <code value="HTEST"/>
            <display value="test health data"/>
          </security>
        </meta>
        <text>
          <status value="generated"/><div xmlns="http://www.w3.org/1999/xhtml"><div xml:lang="en" lang="en"><hr/><p><b>English</b></p><hr/><a name="Observation_mii-exa-person-observation-vitalstatus"> </a><p class="res-header-id"><b>Generated Narrative: Observation mii-exa-person-observation-vitalstatus</b></p><a name="mii-exa-person-observation-vitalstatus"> </a><a name="hcmii-exa-person-observation-vitalstatus"> </a><div style="display: inline-block; background-color: #d9e0e7; padding: 6px; margin: 4px; border: 1px solid #8da1b4; border-radius: 5px; line-height: 60%"><p style="margin-bottom: 0px"/><p style="margin-bottom: 0px">Profile: <a href="StructureDefinition-mii-pr-person-vitalstatus.html">MII PR Person Vitalstatusversion: null2026.0.0-dev.1)</a></p><p style="margin-bottom: 0px">Security Label: test health data (Details: ActReason code HTEST = 'test health data')</p></div><p><b>status</b>: Final</p><p><b>category</b>: <span title="Codes:{http://terminology.hl7.org/CodeSystem/observation-category survey}">Survey</span></p><p><b>code</b>: <span title="Codes:{http://loinc.org 67162-8}">Patient Disposition</span></p><p><b>subject</b>: <a href="Patient-mii-exa-person-patient-1.html">Maja Julia Van-der-Dussen (official) Female, DoB: 1998-09-19 ( Medical record number (use: usual, ))</a></p><p><b>encounter</b>: <a href="Encounter-mii-exa-fall-kontakt-gesundheitseinrichtung-9.html">Encounter: extension = ; identifier = Visit number; status = finished; class = ambulatory (ActCode#AMB); type = Abteilungskontakt; priority = emergency; period = 2020-01-08 07:00:00+0100 --&gt; 2020-01-08 09:00:00+0100</a></p><p><b>effective</b>: 2020-01-08 07:00:00+0100</p><p><b>value</b>: <span title="Codes:{https://www.medizininformatik-initiative.de/fhir/core/modul-person/CodeSystem/Vitalstatus L}">Patient lebt</span></p></div></div>
        </text>
        <status value="final"/>
        <category>
          <coding>
            <system value="http://terminology.hl7.org/CodeSystem/observation-category"/>
            <code value="survey"/>
          </coding>
        </category>
        <code>
          <coding>
            <system value="http://loinc.org"/>
            <code value="67162-8"/>
          </coding>
        </code>
        <subject>
          <reference value="Patient/mii-exa-person-patient-1"/>
        </subject>
        <encounter>
          <reference value="Encounter/mii-exa-fall-kontakt-gesundheitseinrichtung-9"/>
        </encounter>
        <effectiveDateTime value="2020-01-08T07:00:00+01:00"/>
        <valueCodeableConcept>
          <coding>
            <system value="https://www.medizininformatik-initiative.de/fhir/core/modul-person/CodeSystem/Vitalstatus"/>
            <code value="L"/>
            <display value="Patient lebt"/>
          </coding>
        </valueCodeableConcept>
      </Observation>
    </resource>
    <request>
      <method value="POST"/>
      <url value="Observation"/>
    </request>
  </entry>
  <entry>
    <fullUrl value="https://www.medizininformatik-initiative.de/Observation/mii-exa-person-observation-vitalstatus-discharge"/>
    <resource>
      <Observation>
        <id value="mii-exa-person-observation-vitalstatus-discharge"/>
        <meta>
          <profile value="https://www.medizininformatik-initiative.de/fhir/core/modul-person/StructureDefinition/Vitalstatus|2026.0.0-dev.1"/>
          <security>
            <system value="http://terminology.hl7.org/CodeSystem/v3-ActReason"/>
            <code value="HTEST"/>
            <display value="test health data"/>
          </security>
        </meta>
        <text>
          <status value="generated"/><div xmlns="http://www.w3.org/1999/xhtml"><div xml:lang="en" lang="en"><hr/><p><b>English</b></p><hr/><a name="Observation_mii-exa-person-observation-vitalstatus-discharge"> </a><p class="res-header-id"><b>Generated Narrative: Observation mii-exa-person-observation-vitalstatus-discharge</b></p><a name="mii-exa-person-observation-vitalstatus-discharge"> </a><a name="hcmii-exa-person-observation-vitalstatus-discharge"> </a><div style="display: inline-block; background-color: #d9e0e7; padding: 6px; margin: 4px; border: 1px solid #8da1b4; border-radius: 5px; line-height: 60%"><p style="margin-bottom: 0px"/><p style="margin-bottom: 0px">Profile: <a href="StructureDefinition-mii-pr-person-vitalstatus.html">MII PR Person Vitalstatusversion: null2026.0.0-dev.1)</a></p><p style="margin-bottom: 0px">Security Label: test health data (Details: ActReason code HTEST = 'test health data')</p></div><p><b>status</b>: Final</p><p><b>category</b>: <span title="Codes:{http://terminology.hl7.org/CodeSystem/observation-category survey}">Survey</span></p><p><b>code</b>: <span title="Codes:{http://loinc.org 67162-8}">Vital status</span></p><p><b>subject</b>: <a href="Patient-mii-exa-person-patient-1.html">Maja Julia Van-der-Dussen (official) Female, DoB: 1998-09-19 ( Medical record number (use: usual, ))</a></p><p><b>encounter</b>: <a href="Encounter-mii-exa-fall-kontakt-gesundheitseinrichtung-7.html">Encounter: identifier = Visit number; status = finished; class = inpatient encounter (ActCode#IMP); type = Abteilungskontakt; serviceType = Innere Medizin; period = 2020-01-12 00:00:00+0100 --&gt; 2020-01-17 18:00:00+0100</a></p><p><b>effective</b>: 2020-01-17 18:00:00+0100</p><p><b>value</b>: <span title="Codes:{https://www.medizininformatik-initiative.de/fhir/core/modul-person/CodeSystem/Vitalstatus L}">Patient lebt</span></p></div></div>
        </text>
        <status value="final"/>
        <category>
          <coding>
            <system value="http://terminology.hl7.org/CodeSystem/observation-category"/>
            <code value="survey"/>
          </coding>
        </category>
        <code>
          <coding>
            <system value="http://loinc.org"/>
            <code value="67162-8"/>
          </coding>
          <text value="Vital status"/>
        </code>
        <subject>
          <reference value="Patient/mii-exa-person-patient-1"/>
        </subject>
        <encounter>
          <reference value="Encounter/mii-exa-fall-kontakt-gesundheitseinrichtung-7"/>
        </encounter>
        <effectiveDateTime value="2020-01-17T18:00:00+01:00"/>
        <valueCodeableConcept>
          <coding>
            <system value="https://www.medizininformatik-initiative.de/fhir/core/modul-person/CodeSystem/Vitalstatus"/>
            <code value="L"/>
            <display value="Patient lebt"/>
          </coding>
          <text value="Patient lebt"/>
        </valueCodeableConcept>
      </Observation>
    </resource>
    <request>
      <method value="POST"/>
      <url value="Observation"/>
    </request>
  </entry>
</Bundle>